AccX,AccY,AccZ,GyroX,GyroY,GyroZ,Gesture
-10136,4844,19888,-1890,4320,-13790,1
-10648,4308,19560,-1229,2822,-13816,1
-10420,4368,19588,-754,1665,-13252,1
-10004,4368,19512,-813,1143,-12777,1
-9764,4436,19452,-836,697,-12328,1
-9412,4376,19192,-701,385,-12080,1
-9300,4032,18464,-584,381,-11766,1
-9800,3576,18340,-231,54,-11516,1
-10288,3252,17824,608,-845,-10985,1
1568,-7028,17860,-698,-1409,408,1
1864,-7012,17964,-771,-1551,310,1
2124,-7016,17964,-761,-1498,156,1
2420,-7324,17992,-517,-1372,-5,1
2512,-7384,18064,-308,-1051,-103,1
2384,-7144,17848,-28,-615,-16,1
2260,-7012,17936,218,-211,27,1
2092,-6988,17768,517,145,113,1
1992,-6992,17880,704,540,158,1
1416,-6772,17868,807,585,241,1
528,-7120,18008,1357,-1691,1573,1
736,-7236,17804,1514,-1683,1940,1
856,-7268,17936,1712,-1773,2218,1
1108,-7072,17836,1877,-1759,2587,1
1392,-6956,17808,1861,-1665,2759,1
1704,-7288,17564,1770,-1283,2481,1
1676,-7312,17876,1885,-1226,2242,1
1252,-7108,17852,2052,-1509,2281,1
1024,-7032,17800,2288,-1790,2712,1
1184,-6604,17768,2323,-1854,3037,1
2612,-6632,17624,1920,-1327,1694,1
2508,-6680,17836,1795,-986,1558,1
2220,-6664,18000,1681,-780,1632,1
2196,-6192,18144,1476,-474,1860,1
1952,-6580,18124,1350,-342,1905,1
2028,-6600,18276,1295,-184,1419,1
2100,-6772,18220,1265,-24,884,1
2216,-6752,18260,1184,258,193,1
1908,-6812,18384,1150,171,-401,1
2020,-6508,18240,739,143,-1048,1
1956,-6152,18596,147,3867,-4450,1
1760,-6776,18828,221,3951,-4827,1
1504,-6744,18884,429,4021,-5198,1
1320,-5992,18952,465,3841,-5084,1
944,-5648,18856,256,3844,-4515,1
796,-5648,18760,54,3745,-3852,1
720,-5676,18804,-150,3576,-3309,1
816,-5744,18668,-352,3297,-3264,1
1064,-5544,18516,-749,2896,-3650,1
1040,-5872,18696,-1015,2470,-4420,1
896,-5264,18400,-1950,843,-5289,1
816,-5372,18564,-1940,741,-4903,1
1208,-5276,18452,-1812,795,-4377,1
1480,-5236,18104,-1803,1358,-3949,1
1492,-4920,17856,-2126,1970,-3799,1
756,-4768,18140,-2567,2182,-3829,1
296,-5156,18416,-2888,1654,-4077,1
220,-5928,18644,-2736,852,-4771,1
760,-5940,18504,-2720,518,-5610,1
928,-6324,18652,-2530,516,-5959,1
480,-5852,18196,-1724,1442,-5948,1
728,-6120,18492,-1580,1927,-5901,1
640,-6276,18636,-1232,2579,-5609,1
720,-6136,18424,-794,3430,-5086,1
472,-6064,18476,-382,4257,-4451,1
-200,-6084,18956,-29,4628,-4293,1
-788,-5824,18780,-49,4359,-4385,1
-1208,-5500,19000,-296,3675,-4781,1
-1352,-5616,18988,-483,2691,-5123,1
-1112,-5496,18756,-703,1852,-5504,1
-288,-5072,18536,-635,1935,-4866,1
-268,-4892,18420,-879,1588,-4878,1
120,-4988,18128,-1085,1498,-4593,1
476,-5028,17980,-1258,1784,-4244,1
488,-5320,17928,-1327,2194,-4070,1
128,-5880,18128,-1086,2355,-4057,1
208,-5760,18404,-826,2262,-4276,1
148,-5536,18360,-838,2065,-4412,1
144,-5384,18188,-872,1769,-4554,1
220,-5252,17932,-926,1702,-4590,1
-12,-5700,18372,-985,2131,-4091,1
-204,-5872,18428,-899,2120,-3921,1
-116,-6180,18328,-706,2094,-3807,1
-144,-6020,18480,-513,2080,-3813,1
-128,-5836,18444,-312,2023,-3977,1
-128,-5500,18536,-283,1938,-4116,1
-392,-5708,18540,-223,1939,-4275,1
-524,-5464,18776,-251,1652,-4116,1
-520,-5196,18800,-204,1540,-3729,1
-476,-5228,19148,-252,1401,-3224,1
-120,-5208,18400,-825,1444,-4461,1
-232,-5236,18448,-926,1392,-4406,1
-472,-5060,18632,-1105,1128,-4451,1
-460,-5224,18588,-1266,724,-4473,1
-96,-5272,18512,-1469,327,-4577,1
204,-5480,18512,-1479,145,-4669,1
504,-5480,18524,-1349,187,-4677,1
596,-5720,18360,-1160,361,-4532,1
568,-5708,18500,-1014,696,-4354,1
700,-5580,18560,-926,959,-4354,1
672,-5512,18448,-856,2386,-3835,1
420,-5528,18728,-998,2451,-3812,1
428,-5640,18744,-969,2290,-3708,1
480,-5820,18820,-820,2317,-3710,1
364,-5852,18824,-782,2314,-3686,1
620,-5772,19036,-670,2372,-3682,1
544,-5644,18784,-571,2455,-3655,1
448,-5564,18836,-604,2475,-3719,1
264,-5640,18668,-596,2437,-3621,1
320,-5404,18456,-706,2574,-3626,1
324,-5480,18096,-1281,2108,-4761,1
220,-5332,17980,-1419,2053,-4807,1
132,-5636,17852,-1522,2246,-4723,1
4,-5624,17844,-1600,2542,-4596,1
96,-5808,17940,-1549,2953,-4414,1
-16,-5840,18048,-1423,3331,-4252,1
-192,-5932,18088,-1240,3503,-4229,1
-388,-5668,18096,-1309,3511,-4308,1
-408,-5488,18164,-1479,3573,-4496,1
-608,-5512,18016,-1678,3558,-4598,1
-1348,-5920,18092,-1632,2955,-4205,1
-1468,-5852,18208,-1671,2846,-4208,1
-1628,-5652,18120,-1635,2633,-4160,1
-1652,-5816,18116,-1638,2551,-3814,1
-1328,-5956,18000,-1499,2699,-3456,1
-1156,-5780,18188,-1418,2946,-3247,1
-1316,-5932,18308,-1401,2962,-3285,1
-1340,-5932,18272,-1520,2858,-3399,1
-1284,-6088,18620,-1465,2504,-3412,1
-1432,-6164,18556,-1477,2275,-3257,1
-1524,-6536,17856,-1434,2431,-2556,1
-1384,-6684,17828,-1207,2868,-2460,1
-1552,-6148,17888,-1152,3131,-2488,1
-1972,-5948,18012,-1331,3069,-2571,1
-2096,-6060,18272,-1449,2848,-2584,1
-2192,-6232,18308,-1351,2600,-2718,1
-2340,-6020,18448,-1414,2280,-2658,1
-2000,-6428,18556,-1318,2069,-2536,1
-1872,-6452,18480,-1202,2073,-2365,1
-1816,-6436,18204,-1069,2202,-2227,1
-2548,-6528,18376,-979,838,-1605,1
-2756,-6528,18620,-989,609,-1672,1
-2592,-6948,18876,-895,432,-1772,1
-2472,-6912,18612,-691,359,-1854,1
-2252,-6824,18380,-570,338,-1741,1
-2140,-6664,18196,-511,539,-1630,1
-2380,-6320,18028,-602,568,-1312,1
-2380,-6416,17960,-735,500,-1192,1
-2464,-6544,18116,-724,304,-1266,1
-2584,-6352,18244,-778,72,-1468,1
-2020,-6152,17924,-957,994,-1465,1
-1992,-6240,18020,-1047,717,-1506,1
-1852,-6492,18056,-1085,571,-1636,1
-1760,-6616,18124,-1041,608,-1662,1
-1452,-6684,17940,-924,809,-1639,1
-1584,-6792,17668,-716,1094,-1633,1
-1992,-6448,17764,-728,1219,-1522,1
-2128,-6456,17868,-790,1034,-1484,1
-2080,-6312,17964,-926,836,-1479,1
-2140,-6328,18000,-991,666,-1493,1
-2164,-6344,18024,-928,581,-1313,1
-2084,-6436,17916,-881,629,-1113,1
-1960,-6540,17944,-812,910,-1017,1
-2076,-6540,18028,-748,1040,-1088,1
-2472,-6556,17932,-776,959,-1186,1
-2660,-6544,18056,-787,826,-1236,1
-2508,-6384,17996,-844,703,-1128,1
-2656,-6380,18164,-803,673,-933,1
-2660,-6268,18168,-862,629,-788,1
-2676,-6464,18108,-837,523,-665,1
-644,-5108,18816,-710,987,-3774,1
-636,-4988,18828,-634,956,-3791,1
-820,-5124,19064,-567,647,-3883,1
-964,-4824,18928,-691,543,-3879,1
-940,-4772,18940,-986,418,-3734,1
-848,-4752,19084,-1324,139,-3722,1
-716,-4908,18980,-1626,-291,-3812,1
-108,-4956,18848,-1814,-406,-3939,1
396,-5188,18792,-1775,-126,-3905,1
540,-5388,18740,-1638,272,-3869,1
-192,-6212,18940,-939,2761,-5538,1
-464,-6240,18980,-893,2648,-5563,1
-600,-6308,19084,-906,2582,-5554,1
-684,-6308,19296,-859,2468,-5619,1
-676,-6244,18920,-888,2385,-5782,1
-1020,-6116,19128,-918,2310,-5873,1
-984,-5928,19132,-901,2265,-5716,1
-1352,-5872,18948,-933,2253,-5398,1
-1260,-5788,18892,-1069,2259,-5202,1
-1336,-5808,18796,-1211,2231,-5015,1
-1144,-5628,18732,-336,2111,-4773,1
-1288,-5820,18776,-401,1887,-4805,1
-1148,-5608,18888,-387,1630,-4809,1
-1344,-5760,18740,-429,1315,-4889,1
-1176,-5512,18692,-566,945,-5065,1
-768,-5708,18640,-697,674,-5339,1
-552,-5820,18528,-647,625,-5507,1
-64,-6292,18652,-320,1056,-5609,1
-168,-6100,18756,5,1695,-5503,1
-744,-5912,18940,212,1969,-5172,1
-2012,-3880,18656,-1213,1213,-2601,1
-1908,-4120,18680,-1334,965,-2717,1
-1472,-4332,18748,-1252,741,-2657,1
-1040,-4548,18696,-1039,898,-2511,1
-756,-4432,18532,-968,1396,-2364,1
-764,-4340,18396,-992,1945,-2237,1
-1064,-4276,18464,-1038,2212,-2221,1
-1324,-4192,18632,-1136,2070,-2409,1
-1632,-4300,18800,-1204,1581,-2589,1
-1396,-4508,18968,-1352,1356,-2762,1
-1860,-4720,18820,-853,1879,-1969,1
-1908,-4752,18816,-893,1931,-2053,1
-2064,-4656,18728,-1040,1785,-2181,1
-2464,-4632,18744,-1151,1470,-2180,1
-2592,-4732,18792,-1221,1340,-2209,1
-2860,-4792,19084,-1218,1034,-2245,1
-3128,-4688,19028,-1266,639,-2111,1
-3136,-4672,18916,-1393,135,-2082,1
-3252,-4684,19076,-1437,-529,-2027,1
-2524,-4736,18768,-1405,-720,-1917,1
-2364,-4624,19264,-1100,-384,-1081,1
-2272,-4692,18868,-1011,-506,-969,1
-1900,-4444,18952,-938,-497,-854,1
-1780,-4580,18696,-915,-309,-828,1
-1788,-4640,18700,-853,-223,-809,1
-1908,-4500,18712,-885,-107,-732,1
-1916,-4432,18888,-995,-100,-797,1
-1804,-4432,18696,-1132,-123,-871,1
-1840,-4632,18904,-1153,-160,-874,1
-1932,-4832,18980,-1059,-84,-895,1
-1644,-5096,18768,-728,-368,-652,1
-1608,-4952,18804,-684,-177,-652,1
-1672,-4732,18896,-625,-109,-421,1
-1504,-4744,19052,-689,-141,-250,1
-1572,-4660,18980,-696,-81,-134,1
-1572,-4728,18824,-757,-11,-81,1
-1688,-5008,18828,-724,55,20,1
-1272,-3328,19676,-1285,2420,761,1
-1404,-3296,19504,-1109,1983,657,1
-1808,-3276,19344,-1044,1309,649,1
-1652,-3252,19276,-983,819,597,1
-1728,-3072,19260,-870,330,753,1
-1924,-2988,19076,-1007,-29,938,1
-2064,-2696,19228,-1144,-502,1207,1
-1912,-2920,19104,-1331,-920,1233,1
-1852,-3008,19128,-1545,-1418,1151,1
-1416,-3248,19064,-1725,-1613,877,1
620,-3928,19048,-1740,-1111,-635,1
544,-4028,19004,-1658,-1071,-645,1
768,-4212,19148,-1474,-871,-831,1
1116,-4164,18968,-1398,-608,-1161,1
1308,-4472,18888,-1341,-136,-1369,1
1440,-4372,18932,-1034,458,-1381,1
1728,-4360,18968,-742,1372,-1334,1
1596,-4548,19112,-393,2129,-1201,1
1596,-4472,19268,-204,2820,-1202,1
1228,-4736,19420,-62,3091,-1211,1
368,-3896,18984,116,1740,-4258,1
340,-3668,18884,35,1722,-4470,1
96,-3384,18816,-272,1758,-4627,1
-8,-3516,18824,-442,1827,-4720,1
-348,-3508,18972,-581,1894,-4545,1
-372,-3684,18944,-568,1945,-4197,1
-172,-3860,18972,-471,2113,-4063,1
-36,-4188,18968,-156,2281,-4096,1
188,-4176,18716,2,2624,-4270,1
436,-4184,18328,201,3057,-4582,1
-1768,-3424,19372,-1412,-445,-5402,1
-1620,-3528,19468,-1544,-619,-5429,1
-1500,-3464,19532,-1755,-685,-5544,1
-1220,-3600,19516,-1898,-610,-5558,1
-1276,-3824,19652,-1888,-615,-5351,1
-848,-3924,19540,-1755,-284,-5149,1
-848,-3952,19448,-1665,232,-4843,1
-968,-3920,19672,-1483,616,-4764,1
-1252,-3924,19868,-1342,726,-4729,1
-1132,-3800,19540,-1189,639,-4520,1
-1660,-3592,19548,-1436,-703,-4156,1
-1452,-3576,19544,-1561,-990,-4288,1
-1188,-3840,19412,-1479,-1323,-4362,1
-800,-3912,19200,-1351,-1133,-4421,1
-756,-3848,19124,-1166,-680,-4085,1
-704,-3892,19256,-1114,-49,-3795,1
-924,-3732,19316,-980,239,-3521,1
-1012,-3840,19520,-951,203,-3517,1
-1420,-3656,19572,-849,-380,-3547,1
-1020,-4024,19324,-960,-646,-3733,1
-288,-3884,19308,-1510,-2450,-3136,1
-92,-4292,19112,-1449,-2495,-3131,1
428,-4304,19072,-1353,-2255,-3218,1
612,-4452,19068,-1186,-1932,-3161,1
676,-4176,19032,-998,-1418,-3203,1
684,-4064,19176,-874,-885,-3014,1
552,-3936,19256,-809,-512,-2719,1
380,-3976,19332,-812,-625,-2649,1
564,-4164,19340,-804,-750,-2724,1
800,-4212,19268,-744,-724,-2757,1
956,-3796,19104,-861,-16,-3634,1
904,-3768,19020,-1055,-328,-3497,1
1108,-3888,18956,-1248,-659,-3710,1
1620,-4304,18880,-1288,-688,-4079,1
1996,-4660,18820,-1150,-309,-4343,1
2072,-4588,19088,-855,283,-4533,1
1932,-4536,18976,-685,929,-4484,1
1816,-4412,19124,-485,1436,-4380,1
1272,-4072,18772,-394,1616,-4068,1
1004,-3996,18820,-456,1529,-3957,1
432,-3904,18640,-1679,711,-5356,1
300,-3900,18824,-1624,722,-5125,1
144,-3960,18932,-1591,654,-5135,1
308,-3952,18892,-1533,524,-5141,1
400,-4064,18844,-1431,469,-5018,1
436,-4056,18680,-1401,557,-5031,1
512,-4052,18708,-1396,630,-5002,1
548,-3988,18864,-1464,690,-5106,1
440,-4016,18888,-1474,725,-5157,1
616,-3916,18916,-1407,881,-4968,1
732,-4084,19184,-1521,941,-4138,1
484,-4016,19280,-1558,875,-4157,1
576,-4032,19200,-1671,684,-4208,1
672,-4124,19064,-1669,559,-4253,1
892,-4176,19008,-1577,839,-4053,1
776,-4040,18832,-1547,1068,-3606,1
612,-4204,18888,-1496,1046,-3416,1
448,-4356,18792,-1510,680,-3445,1
308,-4316,18832,-1669,66,-3880,1
228,-4472,18872,-1785,-942,-4441,1
-476,-4216,19856,-1277,-1023,-4390,1
-48,-4176,19660,-1400,-1776,-4286,1
424,-4432,19696,-1479,-2356,-4403,1
708,-4552,19436,-1472,-2713,-4528,1
1112,-4544,19500,-1400,-2849,-4692,1
1440,-4452,19236,-1353,-2443,-4496,1
1788,-4348,19220,-1226,-1796,-4114,1
1696,-4432,19208,-1125,-1148,-3853,1
1532,-4272,19476,-1089,-814,-3695,1
1420,-4408,19320,-1061,-870,-3647,1
2372,-4388,18504,-1738,-1034,-3842,1
2356,-4396,18448,-1829,-966,-3862,1
2396,-4316,18540,-1946,-814,-3818,1
2700,-4096,18348,-2067,-533,-3815,1
2564,-4460,18688,-2150,-157,-3721,1
2548,-4684,18812,-2177,252,-3719,1
2444,-4568,18844,-2124,392,-3732,1
2372,-4464,18884,-2216,511,-3890,1
2524,-4588,18948,-2258,725,-4045,1
2576,-4728,18856,-2170,1038,-3998,1
2116,-4836,18864,-1252,2413,-3297,1
1916,-4672,18912,-1040,2416,-3303,1
1620,-4360,18588,-1130,2091,-3540,1
1620,-4208,18592,-1309,1712,-3742,1
1756,-4216,18604,-1488,1521,-3738,1
1892,-4416,18696,-1569,1619,-3671,1
2044,-4704,18828,-1638,1811,-3675,1
1960,-4668,18920,-1530,1991,-3534,1
1928,-4636,18736,-1531,2127,-3511,1
2024,-4556,18732,-1436,2284,-3321,1
736,-4600,18692,-1543,1471,-3388,1
648,-4652,18728,-1636,1053,-3668,1
1004,-4688,18696,-1746,634,-3921,1
1224,-4708,18588,-1772,649,-3701,1
1760,-4600,18512,-1748,1246,-3227,1
1644,-4728,18612,-1696,1696,-2840,1
1180,-4840,18660,-1702,1748,-2873,1
1016,-4808,18764,-1733,1264,-3081,1
1208,-4824,18636,-1791,727,-3381,1
1364,-4732,18448,-1919,418,-3672,1
1312,-5116,18928,-1913,2158,-3264,1
1528,-5180,18752,-1946,2220,-3148,1
1840,-5520,18508,-1908,2477,-3097,1
1740,-5576,18620,-1671,2778,-3173,1
1448,-5624,19064,-1509,2972,-3212,1
968,-5584,19184,-1369,2684,-3140,1
716,-5248,19156,-1389,2006,-3304,1
832,-5228,19072,-1402,1381,-3255,1
1076,-4860,18888,-1504,989,-3188,1
1340,-5168,18708,-1563,820,-3244,1
1476,-4848,18124,-1864,1300,-2709,1
1272,-5068,18196,-1969,1284,-2938,1
1064,-5316,18424,-1857,1195,-3126,1
1092,-5372,18384,-1729,1207,-3161,1
1012,-5168,18640,-1622,1284,-3102,1
688,-4920,18456,-1577,1220,-3036,1
748,-4884,18580,-1646,1211,-2879,1
896,-4980,18692,-1687,1170,-2752,1
1120,-5036,18836,-1758,1144,-2551,1
904,-5180,18652,-1759,1046,-2607,1
144,-5600,19008,-1940,-381,-1372,1
356,-5796,18920,-1702,-362,-1243,1
348,-5748,18988,-1508,-375,-1204,1
388,-5868,18908,-1415,-440,-1119,1
368,-5684,18824,-1337,-526,-1171,1
-84,-3548,19072,-944,-421,-548,1
48,-3484,19000,-1035,-349,-566,1
56,-3468,18980,-1089,-451,-524,1
72,-3652,19008,-1197,-381,-602,1
184,-3568,19028,-1255,-241,-775,1
252,-3676,19012,-1234,-198,-789,1
180,-3664,19008,-1200,-109,-907,1
132,-3800,19212,-1000,-98,-897,1
16,-3740,19172,-894,-12,-889,1
32,-3492,19144,-861,117,-835,1
788,-4304,19268,-1437,-1,-2064,1
856,-4416,19340,-1251,68,-2147,1
948,-4488,19476,-984,123,-2296,1
772,-4280,19396,-956,337,-2441,1
592,-4308,19276,-981,379,-2524,1
564,-4356,19216,-1027,360,-2631,1
432,-4048,19192,-976,396,-2647,1
496,-4108,19328,-964,456,-2576,1
316,-4128,19240,-848,502,-2496,1
344,-4168,19112,-877,585,-2514,1
-200,-4012,19332,-1245,155,-3159,1
36,-4112,19424,-1257,-78,-3074,1
324,-4032,19428,-1300,-220,-3209,1
420,-4160,19124,-1264,-95,-3209,1
568,-4032,19176,-1249,222,-3331,1
556,-4260,19416,-1152,564,-3347,1
408,-4336,19416,-978,845,-3126,1
48,-3980,19376,-905,966,-2928,1
-92,-4116,19500,-914,845,-2786,1
-60,-4016,19560,-952,649,-2876,1
672,-4324,19000,-169,915,-2785,1
912,-4232,18796,-278,830,-2972,1
1032,-4044,18696,-444,785,-3458,1
760,-4004,18740,-567,752,-3867,1
500,-3852,18756,-650,727,-3903,1
384,-3860,19084,-726,776,-3802,1
384,-4040,19184,-797,697,-3633,1
324,-4228,19012,-856,484,-3687,1
436,-4400,19208,-805,322,-3895,1
468,-4236,19104,-708,481,-4032,1
-544,-3724,18988,-406,1779,-3355,1
-476,-3784,19152,-434,1431,-3518,1
-348,-3692,19100,-543,1335,-3653,1
-120,-3704,19064,-458,1525,-3536,1
4,-3872,19088,-251,1951,-3215,1
256,-3672,19084,-148,2392,-2766,1
-124,-3800,19180,-78,2700,-2494,1
-104,-3704,19148,3,2800,-2393,1
-40,-3696,19116,32,2861,-2427,1
-184,-3708,19372,-2,2944,-2510,1
-624,-3992,19244,-161,1661,-2905,1
-784,-3796,19016,-139,1692,-2975,1
-684,-3464,18840,-111,1773,-2775,1
-576,-3404,18752,-89,1905,-2522,1
-592,-3152,18932,-288,2041,-2487,1
-884,-3440,18916,-432,1784,-2514,1
-564,-3660,19028,-592,1501,-2800,1
-512,-3828,19176,-608,1291,-3117,1
-488,-4012,18932,-590,1242,-3267,1
-296,-3852,18904,-397,1495,-3330,1
-924,-3528,19044,-596,1017,-3215,1
-1092,-3592,19364,-566,1092,-3240,1
-1696,-3324,19424,-599,745,-3448,1
-2160,-3260,19500,-758,-168,-3707,1
-2108,-3440,19612,-947,-915,-3911,1
-1716,-3744,19700,-961,-1262,-3848,1
-1408,-3760,19392,-777,-1096,-3617,1
-1228,-3792,19240,-507,-659,-3228,1
-1008,-3564,19196,-264,-30,-2785,1
-940,-3548,19024,-199,260,-2401,1
-1820,-3072,19192,-536,605,-2553,1
-1668,-2880,19112,-671,276,-2644,1
-1296,-3124,19060,-694,164,-2606,1
-1156,-3200,18992,-720,218,-2602,1
-1172,-3104,18840,-748,167,-2409,1
-1020,-3132,19288,-782,193,-2323,1
-792,-3332,19024,-713,47,-2243,1
-552,-3460,19140,-710,66,-2243,1
-416,-3524,18928,-699,178,-2505,1
-372,-3728,19000,-721,137,-2795,1
-672,-3496,19092,-282,1491,-2898,1
-600,-3492,19008,-242,1942,-2741,1
-648,-3656,18848,-191,2365,-2716,1
-1084,-3544,18772,-159,2383,-2966,1
-1532,-3396,19092,-318,2064,-3399,1
-1684,-3176,19360,-570,2063,-3525,1
-1768,-3164,19392,-493,2186,-3308,1
-1888,-3164,19584,-410,2362,-2882,1
-2256,-2756,19860,-364,2202,-2528,1
-2344,-3088,19860,-452,1554,-2491,1
-1328,-3172,19196,-88,1130,-3387,1
-1492,-3304,18968,-274,970,-3604,1
-1484,-3268,18960,-401,1032,-3803,1
-1468,-3496,19048,-406,1299,-3810,1
-1644,-3408,19148,-308,1545,-3697,1
-1980,-3212,19292,-186,1595,-3422,1
-2276,-3064,19288,-190,1402,-3287,1
-2116,-3028,19328,-319,1186,-3379,1
-2012,-3168,19440,-402,893,-3508,1
-2168,-3380,19488,-321,638,-3561,1
-2160,-2908,18956,-6,1642,-3309,1
-2272,-2660,18840,-109,1584,-3286,1
-2128,-2556,18908,-258,1666,-3070,1
-1992,-2464,18712,-341,1796,-2845,1
-1984,-2704,18584,-416,1828,-2912,1
-2044,-2984,18852,-522,1608,-3129,1
-2104,-3204,18732,-508,1386,-3451,1
-2160,-3192,18664,-480,1267,-3871,1
-2324,-2912,18468,-445,1235,-4108,1
-2620,-2272,18260,-759,1113,-4073,1
-2612,-2756,18516,-1501,2067,-2567,1
-2588,-2952,18408,-1397,2448,-2657,1
-2700,-2780,18380,-1289,3054,-2620,1
-3252,-2708,18796,-1239,3422,-2468,1
-3804,-2704,19040,-1064,3480,-2148,1
-4408,-2456,19268,-1030,3131,-1678,1
-4716,-2588,19576,-1098,2529,-1462,1
-4860,-2876,19636,-998,1765,-1365,1
-4848,-2928,19380,-1022,1186,-1365,1
-4700,-2880,19308,-881,827,-1251,1
-3452,-3268,19136,-572,86,-236,1
-3396,-3112,18936,-646,15,-243,1
-3172,-2928,18832,-709,-208,-156,1
-3088,-3020,18560,-707,-181,-17,1
-2864,-2924,18736,-789,25,194,1
-2900,-3016,18764,-808,38,343,1
-2568,-3152,18828,-843,36,208,1
-2456,-3252,18772,-748,67,238,1
-2396,-3272,18732,-721,177,41,1
-2612,-2984,18664,-815,83,-161,1
48,-5212,19628,-13,921,952,1
40,-5164,19668,87,747,1058,1
184,-5020,19420,159,556,1122,1
160,-5092,19456,121,388,1111,1
360,-5056,19388,37,434,1015,1
472,-4972,19344,-129,449,722,1
512,-4912,19436,-287,389,338,1
436,-4964,19324,-399,447,112,1
364,-4788,19348,-622,575,44,1
-20,-5172,19356,-504,406,-31,1
-28,-5232,18952,-1439,445,959,1
144,-5240,18892,-1355,62,838,1
268,-5068,18752,-1485,-181,552,1
412,-5376,18660,-1685,-69,350,1
728,-5344,18600,-1736,65,182,1
552,-5516,18600,-1682,113,217,1
544,-5432,18572,-1691,90,412,1
636,-5432,18760,-1794,38,417,1
660,-5676,18564,-1732,-299,162,1
912,-5700,18624,-1574,-598,-132,1
1160,-6084,18248,-1417,-966,-1297,1
1388,-5984,18388,-1292,-780,-1551,1
1384,-6072,18232,-1249,-485,-1701,1
1284,-5908,18280,-1083,-501,-1795,1
1368,-6044,18412,-1055,-352,-1926,1
1324,-5832,18168,-1056,-192,-2171,1
1464,-5920,18096,-1066,146,-2212,1
1312,-5920,18272,-1129,382,-2176,1
1152,-5872,18176,-1122,371,-2201,1
1192,-5720,18236,-1164,-2,-2441,1
1856,-6220,18780,-738,923,-3151,1
1732,-6336,18620,-535,1049,-3355,1
1796,-5972,18516,-448,1195,-3509,1
1532,-5676,18468,-540,1215,-3568,1
1444,-5808,18492,-640,961,-3666,1
1276,-5884,18616,-763,696,-3816,1
1492,-5832,18548,-901,461,-3962,1
1416,-5916,18832,-954,380,-3966,1
1488,-6240,18756,-904,431,-3888,1
1700,-6380,18936,-729,674,-3858,1
1724,-5736,18492,-1264,-265,-4281,1
1760,-5932,18636,-1208,125,-4196,1
1820,-5888,18416,-1078,566,-3984,1
1616,-5836,18316,-1045,984,-3775,1
1544,-5760,18292,-1078,1242,-3680,1
1232,-5656,18504,-1016,1096,-3648,1
1128,-5524,18348,-1083,921,-3592,1
968,-5684,18544,-1119,718,-3619,1
896,-5696,18396,-1113,450,-3673,1
872,-5768,18460,-1027,78,-3709,1
1632,-5556,18036,-1658,-1054,-3538,1
2336,-5672,17900,-1708,-729,-3691,1
2524,-5584,18060,-1660,-74,-3723,1
2508,-5744,17832,-1522,562,-3536,1
2388,-5868,18044,-1347,1260,-3516,1
2116,-5800,17984,-1262,1882,-3510,1
1896,-5632,18096,-1158,2238,-3318,1
1740,-5676,18224,-1059,2393,-3141,1
1488,-5636,18096,-1003,2363,-2892,1
1380,-5504,18476,-1022,2308,-2795,1
1144,-5640,18556,-618,3183,-2766,1
1044,-5528,18556,-674,3086,-2863,1
1084,-5664,18812,-716,2889,-2897,1
976,-5716,18872,-753,2833,-2902,1
1104,-5888,18724,-699,2871,-2995,1
940,-6100,18592,-661,2705,-3094,1
936,-5900,18504,-640,2575,-3395,1
836,-5848,18724,-694,2580,-3501,1
944,-5668,18580,-611,2671,-3379,1
724,-5504,18620,-655,2775,-3175,1
-44,-5420,18584,-1288,671,-4097,1
64,-5384,18688,-1402,385,-4205,1
40,-5528,18948,-1544,146,-4162,1
332,-5720,18744,-1485,180,-4064,1
440,-5860,18688,-1365,307,-3963,1
852,-5748,18716,-1253,523,-3850,1
604,-5784,18696,-1112,687,-3736,1
436,-5648,18532,-1114,598,-3733,1
248,-5504,18792,-1198,287,-3963,1
248,-5532,18716,-1388,-350,-4177,1
632,-5516,18664,-714,1299,-3336,1
396,-5456,18724,-788,1169,-3160,1
272,-5368,18768,-868,922,-2716,1
468,-5524,18664,-1013,617,-2425,1
784,-5568,18448,-1028,476,-2479,1
900,-5696,18172,-1018,389,-2442,1
856,-5484,18368,-1053,400,-2424,1
620,-5696,18476,-1016,6,-2346,1
816,-5636,18596,-1061,-246,-2438,1
916,-5820,18412,-1188,-573,-2642,1
212,-4508,18804,-991,-259,-1340,1
676,-4616,18560,-1089,-508,-1364,1
1020,-4640,18552,-1222,-497,-1394,1
1208,-4804,18536,-1183,-352,-1445,1
1332,-5136,18812,-916,-61,-1489,1
1404,-4916,18660,-778,462,-1267,1
1620,-5056,18596,-551,920,-1166,1
1424,-5068,18476,-467,1146,-1176,1
1184,-4792,18692,-520,1081,-1336,1
1104,-4836,18752,-601,907,-1456,1
1080,-4704,18672,-631,1173,-1732,1
920,-4664,18716,-716,991,-1661,1
1260,-4944,18820,-722,968,-1554,1
1244,-5052,18868,-637,1188,-1511,1
1184,-5080,18984,-532,1274,-1451,1
1280,-4980,18996,-545,1274,-1480,1
1056,-4732,18796,-664,1079,-1483,1
1224,-4668,18628,-821,932,-1604,1
1028,-4600,18548,-1153,845,-1696,1
1084,-4724,18444,-1413,754,-1839,1
520,-4824,18632,-1290,573,-2168,1
692,-5020,18644,-1253,463,-2027,1
824,-5144,18628,-1194,506,-2080,1
728,-5272,18548,-1015,537,-2122,1
544,-4932,18540,-1008,574,-2141,1
364,-4820,18544,-1004,558,-2042,1
120,-4600,18348,-913,543,-1850,1
224,-4500,18340,-962,521,-1741,1
152,-4568,18688,-1018,337,-1733,1
156,-4636,18684,-1202,74,-1759,1
296,-4788,18628,-1373,111,-1806,1
316,-4796,18792,-1371,29,-1795,1
444,-4916,18860,-1358,169,-1786,1
512,-4976,18992,-1235,460,-1694,1
564,-5128,19196,-1035,863,-1391,1
-200,-5052,19380,-880,1029,-1176,1
-596,-5000,19448,-824,759,-911,1
-672,-4888,19392,-821,211,-689,1
-492,-4972,19288,-881,-295,-676,1
-64,-5068,19112,-966,-564,-788,1
-264,-4868,19040,-646,-282,-613,1
-228,-4772,19016,-679,-543,-540,1
-60,-5032,18788,-721,-602,-391,1
1096,-4224,18848,-1817,-1338,-121,1
1248,-4360,18764,-1924,-1186,-28,1
1556,-4560,18684,-1861,-1041,-30,1
1508,-4664,18576,-1683,-724,-15,1
1476,-4860,18700,-1344,-267,73,1
1372,-4848,18752,-918,-13,196,1
1420,-4524,18840,-751,350,341,1
1176,-4296,18784,-803,407,712,1
1180,-4540,18808,-875,219,942,1
1368,-4680,18920,-1113,-184,894,1
2828,-5676,18772,-1748,-2011,-1784,1
3036,-5980,18520,-1954,-2307,-2378,1
3420,-5884,18204,-1957,-2400,-2943,1
3644,-6152,17976,-1988,-2273,-3411,1
4064,-5908,18096,-1936,-1837,-3850,1
3820,-6084,18188,-1936,-1494,-3788,1
4068,-5880,18312,-1879,-1070,-3721,1
4076,-5832,18076,-1850,-851,-3658,1
3868,-6068,18060,-1720,-861,-3831,1
4044,-6116,17848,-1668,-1213,-4160,1
2648,-5208,18740,-591,1846,-5449,1
2316,-5264,18740,-570,1788,-5268,1
2156,-5036,18924,-752,1525,-5006,1
1980,-5092,18960,-1072,1139,-4846,1
2168,-5012,18812,-1360,651,-4673,1
2408,-5084,18828,-1530,393,-4491,1
2680,-5240,18620,-1584,367,-4551,1
2748,-5252,18324,-1586,474,-4528,1
2536,-5324,18548,-1618,297,-4513,1
2624,-5440,18580,-1520,305,-4652,1
2028,-4760,19084,-1298,503,-4799,1
2240,-4536,18760,-1639,82,-4537,1
2232,-4820,18540,-1804,-308,-4444,1
2760,-4916,18436,-1851,-434,-4344,1
2804,-5248,18480,-1788,-422,-4455,1
3048,-5184,18576,-1793,-59,-4699,1
3212,-5232,18716,-1847,280,-4754,1
3024,-5460,18836,-1507,243,-4655,1
3152,-5232,18820,-1164,590,-4467,1
3080,-5044,18628,-928,764,-4206,1
2936,-4664,18460,-740,789,-3320,1
2864,-4972,18304,-810,401,-3264,1
3136,-4908,18212,-696,256,-3439,1
3060,-4840,18076,-651,422,-3530,1
2784,-4292,18212,-754,399,-3669,1
2728,-4012,18532,-1036,65,-3669,1
2736,-4304,18648,-1280,-134,-3575,1
2668,-4324,18628,-1537,-228,-3551,1
2804,-4568,18676,-1721,-174,-3535,1
3024,-4660,18620,-1836,-78,-3553,1
3700,-4972,18564,-681,1376,-3607,1
3564,-4944,18576,-461,1669,-3701,1
3300,-4492,18296,-541,1695,-3725,1
3048,-4124,18160,-779,1414,-3793,1
2920,-4100,17720,-1235,1150,-3942,1
3228,-4044,17536,-1716,793,-4167,1
2992,-4360,17328,-2099,531,-4297,1
3396,-4512,17356,-2376,444,-4721,1
3656,-4564,17564,-2373,765,-5015,1
3648,-4808,18032,-2132,1324,-5080,1
3576,-4392,18956,-1185,1359,-3595,1
3828,-4712,18896,-1046,1610,-3447,1
3792,-4776,18964,-850,1781,-3526,1
3788,-4832,18796,-691,1913,-3574,1
3804,-4852,18608,-651,2225,-3654,1
3440,-4540,18616,-674,2289,-3686,1
3252,-4456,18740,-701,2089,-3598,1
3156,-4244,18744,-777,1864,-3491,1
3100,-4228,18844,-806,1695,-3431,1
2968,-4244,18592,-830,1618,-3394,1
2928,-3992,18600,-900,451,-2779,1
2992,-4092,18440,-1064,329,-2838,1
3292,-4092,18376,-1184,593,-2933,1
3272,-4276,18592,-1089,941,-2829,1
3372,-4016,18632,-1035,1341,-2771,1
3048,-3856,18856,-1022,1503,-2663,1
2884,-3736,18808,-1109,1509,-2572,1
2708,-3996,18900,-1090,1529,-2513,1
2744,-4252,18980,-977,1462,-2410,1
2904,-4360,18948,-839,1333,-2553,1
2808,-4148,19196,-587,1354,-2049,1
2848,-4232,18988,-675,1096,-2144,1
2980,-4160,18884,-825,999,-2308,1
3272,-3964,18768,-919,1088,-2357,1
2980,-4068,18852,-923,1138,-2314,1
3228,-3972,19032,-864,1259,-2152,1
3148,-4072,19176,-898,1313,-2131,1
3128,-4276,18908,-950,1342,-2285,1
2972,-4252,18616,-1058,1303,-2487,1
2912,-4064,18404,-1331,1320,-2723,1
2324,-4548,19336,-1023,1680,-2697,1
2672,-4452,19356,-869,1454,-2726,1
2708,-4488,19100,-701,1374,-2756,1
3116,-4288,18660,-680,1482,-2811,1
3096,-4428,18592,-708,1697,-2862,1
2900,-4440,18576,-778,1959,-2984,1
2920,-4488,18656,-811,2081,-3175,1
2540,-4188,18828,-909,2136,-3341,1
2332,-3996,18952,-1097,2098,-3425,1
2004,-3708,19072,-1277,2053,-3307,1
2568,-4648,18664,-2068,1580,-3713,1
2660,-4648,18772,-1805,1855,-3456,1
2500,-4288,18672,-1639,1980,-3370,1
2128,-4380,18700,-1796,2043,-3390,1
1776,-4372,18888,-1759,1921,-3391,1
1780,-4468,19008,-1520,1735,-3236,1
1876,-4380,19040,-1257,1749,-3061,1
1888,-4400,19260,-1173,1681,-2941,1
1696,-4380,19048,-1179,1549,-2895,1
1492,-4472,19008,-1325,1113,-2897,1
1524,-4272,19016,-1020,1874,-3079,1
1248,-4084,19012,-1045,1491,-2938,1
980,-4100,19100,-1216,1199,-2729,1
1236,-4020,19120,-1143,1197,-2441,1
1324,-4036,18904,-1043,1379,-2170,1
972,-4120,18816,-1061,1485,-2010,1
1128,-4064,18992,-1135,1464,-1972,1
1104,-4128,18828,-1166,1254,-1957,1
1544,-4104,18808,-1145,1256,-2130,1
1628,-4148,18532,-1304,1402,-2242,1
1112,-4604,19108,-1017,1464,-2598,1
1536,-4652,19016,-980,1685,-2772,1
1364,-4872,19032,-920,1826,-3063,1
1260,-4756,19044,-863,1773,-3172,1
960,-4844,19120,-691,1572,-3044,1
1068,-4488,18920,-607,1706,-2809,1
948,-4388,19012,-636,1875,-2594,1
656,-4184,19120,-681,2011,-2357,1
720,-3928,19076,-758,2065,-2058,1
332,-3840,19260,-891,1916,-1743,1
692,-4748,19056,-302,1276,-1239,1
824,-4336,19064,-550,1313,-1229,1
728,-4296,18824,-840,1243,-1387,1
436,-4436,19188,-911,929,-1317,1
216,-4208,19328,-1029,642,-1031,1
-28,-4420,19384,-1136,138,-1028,1
20,-4452,19316,-1203,-365,-1125,1
484,-4208,19152,-1260,-513,-1048,1
596,-4512,19116,-1057,-370,-697,1
848,-4716,18860,-921,-5,-665,1
1084,-4636,18764,-1094,293,-1060,1
756,-4700,18848,-1045,268,-1035,1
488,-4480,18740,-1171,195,-1161,1
448,-4300,18616,-1247,-9,-1193,1
516,-4032,18632,-1173,-76,-833,1
468,-4220,18788,-1230,51,-648,1
392,-4548,18956,-1170,-40,-579,1
408,-4356,19040,-1246,-271,-594,1
480,-4420,18840,-1226,-342,-617,1
724,-4388,18788,-1197,-81,-570,1
196,-3976,19064,-952,-260,49,1
408,-4152,19168,-982,-600,191,1
532,-4180,18948,-1019,-712,242,1
580,-4440,18988,-1078,-618,215,1
608,-4764,19044,-1036,-728,38,1
704,-4528,19116,-1068,-961,-159,1
692,-4604,19024,-1149,-1144,-234,1
1072,-4496,18832,-1112,-777,-300,1
1076,-4132,19048,-990,-378,-113,1
828,-4144,19100,-939,-38,177,1
308,-4488,19092,1277,1764,3193,1
-336,-3952,19416,1477,2245,3877,1
-804,-3680,19956,1175,1703,4466,1
-556,-4556,20144,794,592,4678,1
-344,-5428,19012,-1992,-812,-1078,1
-264,-5496,19016,-2129,-969,-1167,1
-64,-5692,18788,-2210,-1227,-1527,1
420,-5984,18620,-2188,-1167,-2003,1
688,-5808,18520,-2105,-922,-2254,1
792,-5752,18552,-2045,-503,-2241,1
652,-5784,18472,-1775,-149,-2013,1
268,-5556,18584,-1506,-220,-1653,1
332,-5152,18380,-1671,-433,-1320,1
160,-5148,18628,-1995,-793,-1306,1
1308,-6716,18536,-1231,908,-3918,1
1244,-6544,18320,-1425,857,-4215,1
1080,-6540,18616,-1492,587,-4364,1
1212,-6488,18400,-1607,504,-4529,1
1300,-6788,18316,-1524,619,-4630,1
1356,-6836,18248,-1352,730,-4527,1
1664,-6772,18264,-1037,1174,-4196,1
1608,-6792,18048,-781,1608,-3984,1
1484,-6632,18204,-707,1889,-3990,1
1264,-6772,18168,-807,1999,-4356,1
724,-6300,18812,-757,1154,-4176,1
764,-6260,18636,-848,1062,-4046,1
924,-6648,18552,-835,906,-4089,1
1168,-6572,18436,-912,965,-4212,1
1412,-6456,18152,-921,1096,-4331,1
1144,-6416,18340,-918,1393,-4411,1
1148,-6416,18512,-736,1584,-4393,1
1000,-6248,18372,-700,1692,-4284,1
944,-6532,18340,-677,1648,-4358,1
1016,-6460,18296,-618,1629,-4470,1
400,-5544,18620,7,2133,-4003,1
352,-5544,18592,-203,1684,-3946,1
496,-5808,18464,-389,1436,-3963,1
616,-5996,18164,-524,1499,-3991,1
800,-6344,18312,-451,1712,-4305,1
656,-6212,18460,-213,1850,-4509,1
628,-5936,18340,-46,1898,-4514,1
612,-5836,18232,171,2031,-4390,1
628,-5552,18320,92,2091,-4248,1
296,-5384,18384,23,1846,-4127,1
-116,-5332,18724,-215,3073,-3330,1
-240,-5508,18752,-88,2980,-3227,1
-204,-5416,18728,-99,2904,-3140,1
-484,-5376,18928,-74,2683,-3046,1
-368,-5540,18684,-164,2584,-3184,1
-652,-5584,18696,-338,2327,-3442,1
-688,-5324,18800,-479,2008,-3659,1
-336,-5168,18668,-651,1826,-3855,1
-780,-5076,18824,-893,1390,-3898,1
-716,-5128,18840,-1073,1063,-3860,1
-188,-5272,18632,-539,1662,-3507,1
-316,-5396,18780,-418,1610,-3380,1
-276,-5224,18840,-430,1689,-3297,1
-436,-5244,18712,-549,1572,-3273,1
-592,-5252,18796,-681,1180,-3247,1
-148,-5448,18576,-648,1313,-3210,1
12,-5700,18544,-311,1667,-3170,1
280,-5684,18512,142,2299,-3089,1
-60,-5412,18680,509,2708,-2836,1
-476,-5212,18744,632,2869,-2684,1
-832,-4752,18768,-430,1060,-2879,1
-620,-4876,18608,-607,924,-2919,1
-392,-4968,18664,-708,929,-2910,1
-368,-5180,18532,-538,1029,-2913,1
-184,-5344,18464,-199,1236,-2710,1
-124,-5204,18420,41,1475,-2771,1
-268,-4864,18316,20,1524,-2730,1
-500,-4864,18332,-173,1549,-2752,1
-632,-4872,18416,-328,1566,-2782,1
-780,-4748,18372,-451,1419,-2766,1
-1140,-4932,18784,-428,2534,-2173,1
-1156,-4944,18820,-391,2354,-2437,1
-1112,-4960,18888,-336,2251,-2696,1
-1032,-4660,19140,-223,2120,-2790,1
-1232,-4440,18948,-229,1909,-2624,1
-1216,-4600,18896,-419,1869,-2553,1
-1312,-4772,18884,-469,1926,-2503,1
-1164,-4904,18800,-504,2147,-2467,1
-1260,-4876,18904,-451,2280,-2372,1
-1328,-5000,19048,-364,2433,-2411,1
-1596,-4848,19160,-1490,-776,-2699,1
-1628,-5132,19072,-1588,-1191,-2929,1
-1116,-5272,18788,-1504,-1260,-3293,1
-1256,-5108,18928,-1427,-1263,-3335,1
-1220,-4816,18624,-1378,-1110,-3253,1
-936,-4744,18552,-1444,-939,-3172,1
-784,-4656,18484,-1550,-728,-3084,1
-668,-4628,18464,-1576,-601,-3048,1
-696,-4756,18564,-1738,-496,-3102,1
-556,-5260,18528,-1683,-290,-3239,1
-936,-4924,18304,-1196,520,-2964,1
-1076,-4604,18348,-1125,939,-2743,1
-1300,-4208,18348,-1191,1238,-2513,1
-1512,-4420,18328,-1122,1185,-2197,1
-1416,-4744,18480,-1049,1194,-2002,1
-1356,-4776,18624,-928,1229,-1934,1
-1572,-4988,18812,-948,1085,-1791,1
-1500,-4888,18856,-913,961,-1750,1
-1220,-4824,18832,-934,949,-1743,1
-1068,-5020,18880,-837,1025,-1814,1
-1484,-4992,19060,-496,1112,-1112,1
-1260,-5076,19072,-482,848,-1152,1
-1340,-5076,18980,-517,685,-1291,1
-1192,-5268,18960,-449,464,-1460,1
-1040,-5096,18768,-543,308,-1657,1
-1072,-5172,18736,-570,256,-1853,1
-904,-5120,18644,-599,365,-1817,1
-672,-5180,18620,-411,696,-1684,1
-616,-5048,18544,-192,1075,-1432,1
-652,-4872,18560,-103,1404,-1239,1
-1056,-5188,19036,-530,235,-450,1
1464,-4888,18124,-1474,1133,-2474,1
1260,-4872,18528,-1660,843,-2592,1
1252,-5120,18748,-1810,486,-2690,1
1232,-5236,19032,-1821,108,-2720,1
1636,-5408,19084,-1870,-10,-2678,1
1716,-5516,19060,-1767,-173,-2746,1
1912,-5528,19032,-1595,-139,-2866,1
2084,-5404,18868,-1616,-47,-3037,1
1904,-5492,18800,-1598,90,-2917,1
1876,-5564,18768,-1562,246,-2905,1
2796,-5800,18548,-2129,648,-4600,1
2700,-5984,18344,-1948,838,-4491,1
2520,-5648,18568,-1850,1062,-4440,1
2412,-5760,18576,-2019,1166,-4516,1
2420,-6044,18576,-1957,1046,-4564,1
2244,-5816,18772,-1972,935,-4575,1
2200,-6064,18764,-1995,623,-4599,1
2208,-6176,18700,-1954,183,-4713,1
2680,-6136,18632,-2016,-162,-4871,1
2828,-6264,18344,-2008,-129,-4998,1
1956,-5836,19040,-1702,312,-5006,1
2060,-5852,18680,-1727,303,-4963,1
2340,-6340,18720,-1535,250,-4926,1
2308,-6276,18664,-1418,455,-5048,1
2224,-6152,18600,-1459,458,-5194,1
2116,-5988,18696,-1521,508,-5221,1
2276,-6228,18732,-1452,772,-5135,1
2228,-6352,18832,-1132,963,-4934,1
2108,-6300,18876,-811,1158,-4810,1
2028,-5980,18792,-741,1269,-4816,1
2412,-5760,17928,-626,2601,-4015,1
2300,-5892,17828,-636,2757,-4181,1
2416,-5732,17988,-491,2793,-4161,1
2112,-5664,17908,-429,2944,-4179,1
2036,-5304,17984,-516,2941,-4215,1
1928,-5052,17956,-748,2706,-4254,1
1780,-5296,17976,-957,2481,-4348,1
1860,-5360,17988,-938,2366,-4387,1
1916,-5392,17952,-925,2582,-4307,1
1856,-5340,17904,-889,2901,-4203,1
1260,-5796,18284,-785,2852,-3828,1
1124,-5552,18348,-643,3207,-3639,1
844,-5188,18436,-709,3377,-3556,1
524,-4948,18556,-815,3159,-3519,1
352,-4948,18512,-1103,2646,-3599,1
440,-5340,18788,-1131,2324,-3558,1
348,-5520,18836,-1009,2239,-3358,1
212,-5288,18960,-930,2030,-3207,1
516,-5292,18788,-922,1700,-3226,1
860,-5372,18708,-972,1487,-3401,1
540,-4988,18944,-825,1211,-2888,1
644,-5312,18852,-1020,1006,-2958,1
852,-5768,18772,-1009,836,-3146,1
776,-5872,18688,-827,946,-3258,1
716,-5772,18720,-609,1382,-3221,1
656,-5472,18752,-341,1935,-2919,1
376,-5180,18700,-106,2317,-2487,1
-252,-4776,18920,-120,2392,-2139,1
-800,-4440,19228,-409,1564,-1807,1
-1052,-4812,19556,-819,-171,-1654,1
908,-5316,18968,-1241,656,-3270,1
916,-5536,18752,-1298,382,-3397,1
1488,-5252,18692,-1217,479,-3421,1
1620,-5352,18444,-1020,813,-3328,1
1480,-5252,18516,-839,1134,-3101,1
1532,-5296,18476,-892,1327,-3155,1
1160,-5384,18760,-869,1188,-3212,1
1208,-5484,19008,-868,1300,-3183,1
1208,-5316,18976,-860,1390,-3164,1
1028,-5052,19032,-929,1332,-3081,1
840,-5664,18636,-1053,1905,-2872,1
628,-5696,18680,-968,1936,-2930,1
612,-5552,18908,-932,1930,-2888,1
608,-5084,18800,-1088,1890,-2996,1
408,-5028,18756,-1243,1702,-2902,1
380,-5160,18948,-1266,1505,-2731,1
376,-5468,19036,-1195,1375,-2588,1
752,-5324,19028,-1125,1591,-2576,1
672,-5516,18936,-1012,1662,-2577,1
736,-5320,18944,-852,1897,-2569,1
632,-5288,19104,-551,1486,-1943,1
756,-5176,18984,-576,1245,-2131,1
924,-5132,18984,-586,1129,-2213,1
988,-5236,19188,-661,1252,-2295,1
948,-5228,18884,-583,1332,-2360,1
892,-5160,19128,-635,1101,-2377,1
736,-5268,18876,-579,789,-2270,1
940,-5112,18840,-653,503,-2186,1
1508,-5256,18532,-665,636,-2319,1
1504,-5352,18160,-599,1135,-2445,1
924,-5064,18720,-1106,815,-2623,1
800,-5100,18768,-1173,781,-2694,1
832,-5160,18956,-1214,668,-2701,1
984,-5176,18696,-1227,673,-2734,1
1108,-5276,18792,-1246,789,-2748,1
980,-5552,18748,-1153,636,-2784,1
1320,-5388,18636,-979,754,-2691,1
1464,-5320,18432,-894,1204,-2795,1
1352,-5052,18584,-771,1431,-2674,1
1020,-4992,18584,-846,1614,-2592,1
752,-5284,18540,-662,1194,-3589,1
408,-5020,18556,-805,1175,-3617,1
204,-4976,18580,-908,966,-3588,1
192,-5024,18904,-961,578,-3648,1
268,-5088,18996,-875,253,-3613,1
336,-5080,19140,-811,69,-3467,1
448,-5016,19008,-834,-162,-3403,1
684,-5072,18812,-843,-188,-3356,1
760,-5000,18756,-834,-102,-3381,1
812,-5016,18872,-964,-113,-3347,1
596,-5172,18884,-728,1235,-2433,1
288,-5144,18884,-605,1427,-2220,1
240,-5136,18736,-495,1606,-2028,1
432,-5000,18776,-460,1754,-1946,1
324,-5028,18744,-468,1801,-1958,1
296,-4916,18744,-493,1677,-1922,1
348,-4836,18532,-608,1706,-1902,1
424,-4960,18400,-643,1827,-1784,1
268,-5000,18448,-700,1908,-1716,1
48,-4996,18468,-816,1979,-1726,1
-176,-4696,18696,-1020,576,-1448,1
-344,-4812,18684,-1005,570,-1301,1
-472,-4952,18640,-940,690,-1206,1
-564,-4772,18788,-895,644,-1215,1
-556,-4880,18728,-919,517,-1099,1
-356,-4788,18820,-874,432,-1132,1
-508,-4676,18656,-914,362,-1036,1
-412,-4636,18652,-963,414,-825,1
-120,-4756,18736,-948,884,-659,1
-264,-4884,18684,-820,1203,-585,1
-168,-4836,18816,-858,63,-605,1
-272,-4776,18988,-897,-29,-489,1
-172,-4564,19000,-882,-198,-312,1
108,-4636,18644,-995,-326,-240,1
392,-4836,18620,-1051,-290,-352,1
500,-5280,18536,-998,-48,-469,1
564,-5068,18496,-979,238,-491,1
456,-4788,18796,-1153,439,-438,1
160,-5008,18888,-1144,399,-449,1
220,-4932,18960,-1208,434,-496,1
-24,-4232,19064,-904,447,-994,1
-368,-4604,18892,-652,349,-177,1
200,-4304,18768,-731,524,53,1
-160,-4812,19016,-625,280,-72,1
24,-5184,19376,-419,-106,-492,1
332,-5096,19232,-474,-329,-1127,1
628,-5000,19420,-711,-401,-1665,1
684,-4952,19164,-1052,-570,-1972,1
1012,-5000,19104,-1280,-584,-2310,1
1024,-4824,19128,-1196,-886,-2307,1
2344,-5360,18656,-2641,-203,-4230,1
2356,-5180,18688,-2486,314,-4281,1
2404,-5200,18716,-2277,1074,-4171,1
2188,-5368,18788,-2062,1660,-3973,1
1916,-5500,18972,-1815,1943,-3905,1
1752,-5408,19132,-1606,1784,-3916,1
1640,-5500,18936,-1590,1553,-4042,1
1756,-5588,19008,-1677,1346,-4352,1
2128,-5592,18880,-1773,1322,-4882,1
1996,-5552,18908,-1661,1277,-5044,1
1604,-5780,19136,-1195,428,-4750,1
1552,-5548,19096,-1260,148,-4664,1
1608,-5540,18784,-1303,-399,-4792,1
1612,-5624,18680,-1550,-983,-5123,1
1544,-5364,18420,-1824,-1848,-5614,1
1580,-5096,18352,-2215,-2846,-5764,1
1788,-5376,18192,-2308,-3494,-5760,1
2080,-5556,18208,-2298,-3682,-5775,1
2580,-5668,18244,-2404,-3198,-5941,1
2544,-5920,18152,-2338,-3007,-6190,1
2176,-5300,18284,-1318,2244,-4964,1
2220,-5384,18500,-1405,1752,-4893,1
2228,-5384,18436,-1542,1410,-4964,1
2452,-5276,18152,-1569,1350,-5008,1
2520,-5332,18296,-1613,1551,-5001,1
2512,-5412,18268,-1576,1895,-4911,1
2680,-5628,18400,-1601,2002,-4918,1
2620,-5864,18444,-1235,1998,-4680,1
2396,-5452,18520,-1000,1838,-4459,1
2324,-5060,18540,-1068,1593,-4279,1
2492,-5644,18916,-1779,1083,-3614,1
2492,-5564,18752,-1732,992,-3721,1
2520,-5524,18820,-1812,931,-3785,1
2752,-5700,18672,-1876,990,-3746,1
2700,-5716,18604,-1839,1089,-3803,1
2620,-5700,18696,-1694,1385,-3791,1
2596,-5520,18960,-1682,1723,-3668,1
2388,-5456,18908,-1717,1751,-3545,1
2432,-5768,18996,-1652,1654,-3464,1
2388,-5940,19056,-1448,1427,-3453,1
1932,-4784,18472,-686,615,-810,1
2140,-4964,18456,-853,497,-825,1
2304,-4896,18604,-975,345,-823,1
2436,-5096,18660,-1064,356,-879,1
2712,-5460,18712,-1009,206,-1060,1
2792,-5460,18640,-1063,139,-1382,1
2976,-5364,18360,-1205,-232,-1772,1
3292,-5240,18544,-1389,-686,-2318,1
3620,-5448,18216,-1579,-887,-2871,1
4128,-5308,17996,-1798,-765,-3290,1
1840,-6036,18948,-1760,2464,-3607,1
1720,-5952,18928,-1780,2283,-3517,1
2008,-5956,18720,-1657,2031,-3432,1
2052,-5844,18780,-1505,1632,-3353,1
2072,-6020,18452,-1357,1240,-3334,1
2348,-5984,18324,-1315,1282,-3482,1
2296,-5656,18260,-1438,1551,-3487,1
2424,-5776,18264,-1572,1903,-3562,1
2304,-5768,18408,-1530,2177,-3351,1
1952,-5836,18416,-1546,2450,-3103,1
1192,-5456,18392,-1255,1119,-2369,1
1312,-5464,18212,-1237,922,-2301,1
1664,-5460,18160,-1339,969,-2309,1
1732,-5820,18100,-1465,867,-2337,1
2056,-5840,18144,-1528,997,-2464,1
2100,-5992,18224,-1474,1356,-2376,1
1936,-5892,17988,-1252,1721,-2404,1
1492,-5580,18096,-1245,1968,-2159,1
1132,-5644,18376,-1342,1955,-1948,1
848,-5820,18552,-1553,1904,-1919,1
-1504,-4384,18860,-1297,325,762,1
-1660,-4176,18956,-1290,178,786,1
-1556,-4296,19132,-1434,94,656,1
-1520,-4276,18792,-1624,14,459,1
-1140,-4188,18848,-1803,314,266,1
-1448,-4408,18648,-1652,164,278,1
-1336,-4252,18772,-1610,370,357,1
-1224,-4248,18888,-1585,355,448,1
-1464,-4280,18760,-1680,438,465,1
-1504,-4228,18932,-1804,161,370,1
-1644,-4244,18872,-1180,-1585,-213,1
-1804,-3960,18856,-1358,-2039,174,1
-1400,-3840,18568,-1715,-2174,618,1
-1508,-4308,18976,-1807,-2246,944,1
-1260,-4668,18928,-1781,-2279,763,1
-876,-4988,18848,-1656,-2264,29,1
-748,-5324,19024,-1286,-2367,-786,1
-380,-5224,18888,-976,-2530,-1721,1
-372,-4668,18764,-1125,-2469,-2419,1
-316,-4316,18824,-1329,-2493,-2625,1
208,-5180,18876,-1678,-1519,-3029,1
396,-5104,18656,-1916,-1412,-3529,1
540,-5320,18600,-2181,-1199,-4081,1
496,-5320,18500,-2171,-921,-4306,1
632,-5356,18432,-1977,-540,-4434,1
596,-5220,18568,-1770,-8,-4328,1
572,-5188,18444,-1597,302,-4301,1
660,-5068,18492,-1761,634,-4480,1
420,-5236,18332,-2024,964,-4589,1
368,-5284,18228,-1987,1008,-4721,1
488,-5384,18240,-2101,1584,-5654,1
192,-5544,18256,-2009,1754,-5414,1
240,-5604,18460,-2012,1788,-5319,1
248,-5616,18648,-2085,1757,-5362,1
264,-6024,18636,-2171,1638,-5534,1
116,-6024,18728,-2057,1720,-5703,1
112,-5756,18728,-2069,1847,-5716,1
-164,-6052,18824,-1819,1685,-5596,1
-40,-5912,18756,-1682,1706,-5449,1
-148,-5592,18768,-1691,1611,-5248,1
-20,-5992,19048,-1475,946,-4966,1
-44,-6068,18732,-1383,1013,-4737,1
252,-6252,18708,-1231,1146,-4727,1
92,-6128,18680,-1073,1296,-4764,1
-20,-6128,18700,-1114,1467,-4827,1
-48,-6060,18804,-1030,1606,-4842,1
-120,-6004,18736,-957,1735,-4657,1
-480,-5732,18716,-972,1663,-4326,1
-632,-5888,18816,-993,1486,-4012,1
-608,-5784,18868,-994,1304,-3875,1
-96,-6004,18572,-586,122,-2787,1
-156,-5748,18648,-516,211,-2675,1
4,-5404,18640,-538,410,-2593,1
-184,-5556,18592,-530,545,-2380,1
-208,-5672,18660,-458,547,-2159,1
-68,-5784,18596,-356,434,-2037,1
20,-5532,18792,-379,343,-2041,1
0,-5620,18676,-445,253,-2108,1
156,-5820,18808,-375,336,-2248,1
324,-5800,18748,-373,448,-2302,1
372,-5788,18544,-342,734,-1940,1
224,-5792,18572,-271,716,-1939,1
192,-5868,18672,-136,619,-2085,1
168,-5908,18324,-68,666,-2105,1
252,-5736,18372,-38,640,-1997,1
540,-5808,18276,108,841,-1781,1
728,-5772,18144,281,1240,-1701,1
532,-5808,18048,482,1555,-1460,1
404,-5376,17820,475,1626,-1209,1
528,-5164,17576,275,1641,-1225,1
-540,-4996,19092,-229,1935,-2044,1
-828,-5076,19020,-330,1766,-1964,1
-628,-5372,19176,-311,1605,-1905,1
-440,-5280,19196,-304,1675,-1769,1
-480,-5568,19396,-199,1715,-1828,1
-308,-5472,19304,-149,1654,-2071,1
-672,-5456,19320,-87,1607,-2180,1
-732,-5312,19248,-108,1454,-2199,1
-736,-5284,19264,-112,1335,-2117,1
-560,-5488,19112,-97,1230,-2133,1
-1108,-5216,19072,-290,732,-2304,1
-1068,-4996,18952,-363,512,-2524,1
-1128,-4900,18876,-497,356,-2666,1
-1188,-4976,18852,-548,31,-2889,1
-1128,-4868,18864,-660,-299,-2914,1
-1040,-4836,18736,-768,-470,-2857,1
-864,-4796,18836,-872,-661,-2837,1
-752,-5036,18956,-867,-832,-2903,1
-728,-4840,18568,-965,-1000,-3061,1
-828,-4704,18600,-1169,-1318,-3247,1
116,-5204,18436,-997,-534,-2726,1
308,-5208,18512,-979,-464,-2850,1
408,-5188,18636,-914,-313,-3007,1
524,-5300,18772,-773,-88,-3081,1
688,-5096,18408,-594,42,-2917,1
476,-4992,18168,-635,424,-2759,1
360,-5016,18176,-677,648,-2580,1
228,-4772,18284,-757,725,-2537,1
64,-4944,18596,-916,548,-2492,1
184,-4904,18604,-1037,274,-2655,1
456,-5276,18788,-1077,746,-2542,1
372,-5544,18608,-982,570,-2657,1
356,-5388,18720,-930,557,-2718,1
652,-5524,18788,-774,733,-2624,1
704,-5628,18540,-630,1117,-2471,1
624,-5292,18476,-498,1464,-2273,1
296,-5040,18480,-501,1646,-2131,1
-112,-5432,18436,-454,1461,-1929,1
28,-5188,18652,-469,1350,-1952,1
-8,-5272,18636,-392,1182,-1882,1
688,-5412,18672,-1249,-351,-3376,1
788,-5432,18880,-1251,-110,-3409,1
860,-5588,19000,-1183,55,-3369,1
904,-5524,18888,-1046,280,-3375,1
808,-5552,18788,-1007,531,-3408,1
800,-5216,18652,-1004,676,-3351,1
720,-5224,18640,-1069,774,-3337,1
472,-5264,18740,-986,794,-3181,1
468,-5356,18712,-1011,908,-3101,1
320,-5304,18960,-967,869,-3045,1
860,-5260,19004,-975,130,-2982,1
892,-5564,18732,-828,265,-2907,1
1184,-5472,18680,-673,637,-2853,1
1088,-5556,18556,-446,993,-2723,1
892,-5272,18440,-345,1459,-2680,1
480,-5040,18508,-424,1440,-2594,1
368,-5120,18540,-561,1361,-2646,1
280,-5060,18448,-632,1227,-2675,1
364,-5120,18608,-621,1156,-2673,1
320,-5232,18604,-639,1141,-2596,1
284,-4804,18424,-538,1162,-2662,1
92,-4684,18296,-729,1128,-2592,1
0,-4848,18252,-883,1070,-2512,1
224,-4820,18252,-1061,917,-2629,1
412,-4836,18320,-1147,768,-2557,1
680,-4868,18352,-1234,835,-2548,1
700,-5216,18452,-1245,887,-2568,1
660,-5232,18444,-1225,872,-2739,1
496,-5240,18388,-1302,861,-2965,1
772,-5020,18412,-1403,1024,-3122,1
496,-5212,18576,-1622,1684,-3448,1
412,-5276,18624,-1594,1912,-3472,1
236,-5400,18768,-1464,2114,-3450,1
300,-5368,18964,-1289,2259,-3361,1
204,-5332,19156,-1190,2318,-3337,1
-56,-5252,18936,-1220,2274,-3343,1
-196,-5316,18956,-1300,2090,-3318,1
-140,-5476,18880,-1253,1865,-3261,1
176,-5524,18944,-1096,1812,-3204,1
604,-5384,18768,-902,2103,-3192,1
-468,-5812,19232,-725,2702,-3802,1
-624,-5764,19204,-609,2815,-3760,1
-860,-5556,19180,-501,2932,-3702,1
-1148,-5456,19248,-424,2886,-3489,1
-1148,-5136,19224,-346,2833,-3451,1
-1352,-5288,19356,-413,2456,-3537,1
-1440,-5132,19468,-594,2111,-3760,1
-1388,-5396,19488,-746,1611,-3857,1
-1408,-5696,19548,-686,1232,-4004,1
-1100,-5712,19180,-560,1217,-4072,1
-1572,-4924,18636,-93,36,-1139,1
-1312,-4704,18604,-169,-42,-1313,1
-1096,-4612,18360,-271,-38,-1425,1
-1260,-4524,18472,-354,-154,-1304,1
-1316,-4360,18380,-416,-384,-1131,1
-1268,-4468,18448,-516,-655,-887,1
-980,-4348,18428,-558,-617,-731,1
-816,-4384,18280,-690,-605,-414,1
852,-3672,19176,-1257,-736,-71,1
1096,-3792,19112,-1663,-973,-142,1
1348,-3868,19080,-1313,-812,-391,1
1444,-3876,18832,-1263,-754,-339,1
1560,-3896,18856,-1295,-470,-430,1
1516,-3964,19072,-1292,-306,-573,1
1536,-4116,19100,-1320,-239,-999,1
1460,-3876,19196,-1362,-305,-1270,1
1268,-3844,19116,-1360,-392,-1437,1
1292,-3792,19140,-1392,-356,-1439,1
1724,-4716,19260,-2836,-519,-3514,1
1956,-4760,19112,-2935,-965,-3913,1
2140,-4924,18836,-2976,-1147,-4423,1
2524,-4752,18604,-2972,-973,-4757,1
2708,-4776,18736,-2884,-293,-4918,1
2688,-4692,18640,-2773,526,-4727,1
2384,-4536,18960,-2729,970,-4367,1
1976,-4720,19028,-2863,995,-4350,1
1808,-4988,19076,-2914,634,-4514,1
1916,-5112,19064,-2941,557,-4562,1
1624,-5300,19000,-1780,2455,-4694,1
1344,-5348,19180,-1749,2202,-4826,1
1116,-5516,19232,-1567,1898,-4953,1
1136,-5292,19048,-1442,1578,-4926,1
1236,-5156,19020,-1334,1107,-5041,1
1308,-5032,18924,-1380,822,-5238,1
1456,-5096,18688,-1371,785,-5265,1
1488,-4892,18692,-1453,953,-5313,1
1392,-4932,18888,-1410,1112,-5125,1
1440,-4992,18932,-1254,1471,-4702,1
1972,-4880,18360,-515,3714,-3398,1
1384,-4872,18568,-519,3749,-3270,1
760,-4700,18920,-669,3220,-3156,1
788,-4776,19152,-781,2463,-3215,1
864,-4932,19168,-801,1744,-3356,1
1172,-4924,19064,-655,1241,-3449,1
1168,-4752,19060,-556,941,-3417,1
1360,-4936,18872,-568,832,-3285,1
1500,-4960,18784,-611,947,-3300,1
1804,-4944,18680,-639,1261,-3315,1
1832,-3952,19004,-492,493,-2865,1
1312,-4104,19212,-617,267,-2991,1
1568,-4236,19040,-687,154,-2990,1
1576,-4320,18936,-658,262,-2907,1
1464,-4428,18988,-579,480,-2793,1
1272,-4268,19104,-551,551,-2756,1
1360,-4144,19036,-568,472,-2758,1
1308,-3940,19124,-696,330,-2840,1
1256,-3928,18972,-870,-61,-2963,1
1532,-4348,18964,-926,-329,-2926,1
1768,-4060,18836,-722,257,-2554,1
1880,-4200,18592,-650,401,-2523,1
1920,-4180,18708,-603,519,-2581,1
1980,-4180,18616,-517,574,-2642,1
1752,-3984,18748,-543,635,-2763,1
1628,-3824,18612,-668,580,-2790,1
1616,-3780,18592,-851,596,-2745,1
1580,-3784,18660,-916,706,-2633,1
1796,-3808,18504,-963,841,-2399,1
1704,-3952,18640,-861,1011,-2236,1
1788,-3472,18448,-254,1761,-2505,1
1600,-3668,18648,-364,1956,-2333,1
1572,-3792,18808,-434,1907,-2216,1
1608,-3760,18888,-508,1953,-2101,1
1604,-3632,18824,-670,1783,-2117,1
1504,-3960,18800,-743,1639,-2188,1
1600,-3976,18964,-791,1523,-2454,1
1400,-3924,19072,-893,1397,-2591,1
1320,-3872,18976,-1073,1230,-2639,1
1284,-3920,19224,-1058,974,-2581,1
1356,-4224,19072,-1400,-569,-3184,1
1360,-4296,19200,-1385,-866,-3321,1
1748,-4144,19324,-1383,-1076,-3476,1
1840,-4092,19328,-1386,-1201,-3491,1
1960,-4128,19012,-1288,-1180,-3438,1
2128,-3996,18956,-1277,-1105,-3272,1
2264,-3944,18916,-1276,-1027,-3215,1
2560,-3944,18692,-1383,-895,-3276,1
2712,-3832,18612,-1507,-622,-3470,1
2780,-4092,18792,-1634,-485,-3602,1
1872,-4408,18908,-1010,1008,-3646,1
1608,-4220,18988,-971,970,-3594,1
1468,-4128,18932,-1045,1028,-3464,1
1360,-4136,18844,-1069,1044,-3344,1
1404,-3964,18832,-1186,1009,-3216,1
1412,-3828,18852,-1277,1130,-3012,1
1548,-4052,18800,-1276,1268,-2898,1
1592,-4024,18784,-1359,1387,-2944,1
1676,-4064,18972,-1410,1388,-3022,1
2416,-3516,18860,-1481,1893,-2635,1
748,-4072,19232,-1106,1444,-2813,1
724,-4016,19292,-1058,1134,-2734,1
676,-3824,19176,-1156,980,-2751,1
596,-4004,19128,-1176,663,-2783,1
852,-4084,19192,-1209,566,-2732,1
1144,-3972,19168,-1117,644,-2740,1
1284,-3872,19276,-1069,694,-2664,1
1272,-4004,19168,-1056,808,-2528,1
1412,-4060,19092,-906,956,-2493,1
1280,-3896,19024,-943,1089,-2396,1
1020,-3940,19068,-829,1572,-2186,1
904,-4016,19240,-981,1460,-2187,1
800,-4032,19184,-953,1307,-2137,1
984,-3884,19344,-949,1185,-2212,1
1004,-4156,19192,-969,1145,-2189,1
1004,-4140,19200,-765,1196,-2196,1
1064,-4216,19184,-640,1346,-2179,1
1100,-3992,18980,-520,1399,-2255,1
972,-3880,19028,-552,1269,-2299,1
964,-4076,18988,-539,998,-2397,1
968,-3732,18900,-1112,933,-1734,1
1112,-3760,18976,-1144,942,-1664,1
1240,-3908,18772,-1187,941,-1777,1
1296,-3996,18796,-1161,921,-1922,1
1240,-3976,18960,-1256,838,-2150,1
1196,-3932,18792,-1199,776,-2305,1
1080,-3760,18916,-1276,711,-2196,1
1120,-3728,18764,-1343,748,-2063,1
1356,-3868,18800,-1381,880,-2029,1
1168,-3924,18864,-1393,991,-2008,1
1104,-4116,18588,-2432,516,-2911,1
1264,-4256,18608,-2395,878,-2826,1
1068,-4248,18492,-2411,1198,-2831,1
928,-4084,18476,-2433,1293,-2938,1
1016,-4172,18464,-2422,1419,-2932,1
880,-4376,18644,-2383,1540,-2901,1
800,-4192,18612,-2413,1628,-2940,1
644,-4324,18836,-2450,1710,-2924,1
616,-4352,19036,-2332,1850,-2758,1
448,-4376,18864,-2227,2075,-2676,1
-320,-4920,19680,-1433,1104,-1208,1
-196,-4904,19716,-1334,882,-1202,1
-212,-4788,19844,-1357,764,-1127,1
-300,-4792,19672,-1301,476,-1010,1
-268,-4848,19752,-1186,330,-923,1
-324,-4924,19408,-1060,107,-784,1
-200,-4792,19332,-1059,127,-706,1
-104,-4796,19256,-977,69,-490,1
-148,-4812,19276,-923,56,-402,1
-116,-4988,19196,-849,-86,-347,1
556,-4704,19268,-539,-411,-24,1
1760,-6024,18300,-1221,141,-520,1
1572,-6248,18480,-1185,154,-427,1
1676,-6356,18596,-1068,302,-402,1
1500,-6468,18628,-876,172,-356,1
1512,-6328,18692,-888,169,-463,1
1520,-6148,18444,-970,-15,-590,1
1560,-6264,18372,-982,-199,-553,1
1700,-6116,18224,-1007,-215,-676,1
1612,-6152,18224,-1147,-415,-667,1
1688,-6208,18140,-947,-395,-597,1
2380,-6676,18472,-1638,-641,-1535,1
2504,-6720,18520,-1557,-479,-1689,1
2488,-6692,18432,-1548,-491,-1988,1
2372,-6436,18512,-1678,-530,-2271,1
2200,-6620,18612,-1702,-816,-2524,1
2252,-6456,18476,-1777,-1147,-2589,1
2504,-6428,18124,-1879,-1321,-2689,1
2800,-6488,17868,-1989,-1213,-2854,1
3088,-6356,17696,-2209,-876,-3194,1
3200,-6324,17600,-2446,-325,-3410,1
2688,-6724,17740,-2082,19,-3420,1
3016,-6760,17512,-2025,197,-3498,1
2964,-7004,17584,-1768,566,-3454,1
3060,-6804,17684,-1563,1092,-3371,1
2816,-6664,17640,-1400,1431,-3170,1
2512,-6548,17728,-1384,1616,-3117,1
2500,-6648,17916,-1444,1570,-3030,1
2456,-6568,17916,-1545,1366,-3177,1
2676,-6840,17868,-1469,1090,-3309,1
2796,-7064,17836,-1284,1163,-3358,1
2764,-6680,18012,-1102,1177,-3139,1
3040,-6744,17972,-1127,1254,-3029,1
3052,-6796,17988,-1186,1522,-3000,1
2900,-7088,18080,-1084,1611,-2864,1
2940,-6932,18180,-1005,1636,-3016,1
2720,-7008,18032,-865,1728,-3115,1
2732,-6724,18036,-781,1820,-3113,1
2564,-6732,18044,-724,1760,-3080,1
2512,-6572,18036,-690,1617,-3037,1
2352,-6404,17968,-744,1389,-3020,1
3016,-6612,17640,-748,2526,-3358,1
2936,-6496,17708,-842,2588,-3511,1
2976,-6632,17688,-811,2580,-3498,1
2864,-6604,17784,-835,2852,-3507,1
2780,-6328,17832,-960,2805,-3455,1
2560,-6636,17836,-1158,2702,-3659,1
2468,-6644,18124,-1189,2399,-3813,1
2400,-6748,18360,-1134,2336,-4005,1
2480,-6824,18496,-989,2394,-4015,1
2356,-6788,18332,-769,2433,-3955,1
1392,-6292,18488,-959,770,-3678,1
1332,-6256,18340,-1156,59,-3771,1
1912,-6452,18088,-1396,-499,-4039,1
2388,-6584,18060,-1433,-500,-4149,1
2720,-6468,17880,-1380,90,-4011,1
2464,-6432,17984,-1142,426,-3668,1
2628,-6280,18152,-1096,804,-3429,1
2284,-6072,18044,-1214,828,-3361,1
2476,-6356,18012,-1356,745,-3422,1
2820,-6424,17940,-1255,649,-3544,1
1932,-6068,18224,-869,1591,-2667,1
1860,-5848,18408,-882,1504,-2545,1
1912,-6028,18208,-954,1306,-2559,1
2292,-6212,18072,-919,1193,-2554,1
2432,-6308,17928,-960,1239,-2734,1
2180,-6028,17916,-1086,1241,-2848,1
2020,-6008,17920,-1226,1177,-3032,1
1740,-5992,18324,-1238,878,-3034,1
1632,-5996,18336,-1321,710,-2940,1
1752,-5900,18468,-1375,405,-2878,1
2180,-6024,18488,-1563,381,-2984,1
1972,-6088,18272,-1456,373,-2660,1
2072,-6004,18228,-1434,409,-2496,1
2200,-6000,18340,-1564,339,-2427,1
2156,-6104,18160,-1656,33,-2558,1
2232,-6108,18536,-1783,-363,-2786,1
2188,-6396,18524,-1782,-800,-2832,1
2368,-6468,18384,-1864,-880,-2927,1
2676,-6676,18412,-1714,-829,-2999,1
2912,-6608,18368,-1409,-557,-2863,1
3332,-6152,18208,-554,-1134,-3862,1
3408,-5812,17948,-722,-1182,-3832,1
3228,-5848,17984,-891,-1506,-3788,1
3460,-5712,17956,-1142,-1766,-3797,1
3832,-5920,17692,-1331,-1673,-3654,1
4252,-6032,17460,-1332,-1243,-3357,1
4504,-6184,17380,-1267,-422,-3140,1
4528,-6024,17472,-1197,233,-2931,1
4316,-5968,17636,-1242,745,-2657,1
4504,-6332,17760,-1073,1290,-2415,1
3716,-6180,18016,-1081,2230,-1598,1
3328,-6152,17848,-1133,2192,-1613,1
3324,-6176,17976,-1135,2004,-1442,1
3408,-6100,17976,-1219,1986,-1499,1
3372,-6196,17852,-1273,2056,-1482,1
3576,-6212,18064,-1359,2134,-1565,1
3628,-6388,18104,-1226,2292,-1636,1
3504,-6468,18204,-939,2321,-1608,1
3200,-6412,18092,-987,2143,-1606,1
3136,-6260,17888,-1080,1909,-1766,1
2816,-6200,18104,-1071,2610,-1362,1
2592,-6260,18248,-1150,2311,-1357,1
2664,-5992,18296,-1154,1954,-1448,1
3048,-6528,18644,-965,1781,-1582,1
3128,-6576,18500,-795,1903,-1643,1
3012,-6632,18516,-552,2083,-1712,1
2824,-6500,18472,-529,2078,-1807,1
2556,-6284,18316,-605,2020,-1829,1
2484,-6060,18180,-731,1864,-1861,1
2644,-6024,18296,-659,1750,-1729,1
2640,-5788,18012,-1049,1007,-2516,1
2748,-5532,18008,-1040,1095,-2216,1
2628,-6056,17976,-1163,1131,-1988,1
2704,-6124,18064,-1297,1099,-2138,1
2664,-6372,18076,-1337,1025,-2394,1
2680,-6448,18056,-1323,1097,-2595,1
2756,-6364,18044,-1148,1313,-2643,1
2472,-6296,17932,-967,1436,-2630,1
2288,-5872,18100,-971,1736,-2436,1
2176,-5860,18052,-1081,1961,-2275,1
1824,-5792,18444,-1080,1618,-1288,1
1804,-5856,18316,-1142,1607,-1395,1
2012,-6144,18332,-1121,1642,-1404,1
1964,-6032,18304,-1087,1692,-1488,1
1868,-5952,18492,-1125,1717,-1578,1
1648,-5860,18424,-1118,1604,-1539,1
1752,-5788,18548,-1072,1365,-1625,1
1740,-5812,18328,-1136,1294,-1604,1
1688,-6164,18572,-1117,1160,-1588,1
1796,-6320,18404,-1025,1103,-1691,1
1564,-5748,18188,-1289,1491,-1731,1
1412,-5728,18056,-1477,1572,-1872,1
1264,-5872,18164,-1489,1441,-1810,1
1300,-5940,18084,-1401,1158,-1603,1
1328,-5708,18076,-1296,959,-1432,1
1284,-5688,18360,-1416,970,-1365,1
1032,-5820,18532,-1373,598,-1246,1
1372,-5860,18488,-1295,353,-1322,1
1540,-5828,18112,-1313,354,-1528,1
1644,-5732,18120,-1409,257,-1776,1
1356,-6624,18420,-1536,1176,-1601,1
1224,-6496,18348,-1439,1408,-1437,1
1080,-6500,18364,-1442,1693,-1276,1
704,-6292,18456,-1318,1570,-959,1
856,-6192,18408,-1403,1329,-778,1
996,-6296,18364,-1555,1250,-738,1
1220,-6588,18296,-1530,1089,-804,1
1172,-6608,18340,-1536,1050,-976,1
1028,-6812,18544,-1556,998,-1084,1
884,-6972,18612,-1384,802,-1180,1
1432,-6572,18344,-1200,-491,-782,1
1520,-6592,18328,-1208,-274,-843,1
1468,-6572,18360,-1137,-6,-760,1
1368,-6420,18400,-1090,286,-832,1
976,-6364,18604,-1132,396,-866,1
848,-6236,18468,-1183,427,-787,1
1064,-6308,18648,-1077,272,-704,1
836,-6420,18636,-940,89,-635,1
712,-6248,18612,-1039,128,-489,1
696,-6408,18744,-1043,-87,-486,1
1788,-5744,18344,-1120,-238,-113,1
1788,-5624,18248,-1183,-188,-39,1
1752,-5724,18504,-1065,-339,139,1
2064,-5732,18212,-1100,-214,218,1
1964,-5740,18448,-1123,-247,243,1
2000,-5776,18668,-1177,-272,170,1
2248,-5992,18604,-1185,-195,34,1
2312,-6096,18368,-1153,-155,-116,1
2172,-6064,18392,-1010,-84,-189,1
2200,-6028,18444,-911,55,-241,1
1920,-5996,18596,-1419,355,-973,1
1992,-6224,18488,-1480,167,-1055,1
1932,-6256,18548,-1497,-57,-1159,1
2212,-6288,18380,-1551,-61,-1343,1
2420,-6300,18352,-1562,-72,-1552,1
2336,-6372,18428,-1579,29,-1622,1
2444,-6176,18272,-1621,-7,-1666,1
2136,-6084,18364,-1682,-157,-1635,1
2044,-6156,18388,-1801,-212,-1693,1
2440,-6352,18364,-1812,-266,-1889,1
2428,-6136,18060,-1879,-400,-2182,1
2312,-6240,18104,-1987,-328,-2240,1
2412,-6236,18008,-2121,-147,-2292,1
2416,-6136,17864,-2199,135,-2246,1
2188,-6304,17948,-2045,183,-2102,1
2188,-6212,18136,-1939,326,-1994,1
2152,-6308,18272,-1866,226,-1950,1
2176,-6428,18468,-1908,403,-1960,1
2148,-6520,18552,-1883,258,-2124,1
2148,-6496,18340,-1792,64,-2321,1
2340,-6644,18304,-1336,516,-2756,1
2276,-6720,18508,-1260,521,-2526,1
2244,-6664,18420,-1355,539,-2382,1
2428,-6784,18380,-1332,478,-2300,1
2592,-6968,18220,-1158,389,-2237,1
2856,-6872,18192,-1000,308,-2255,1
2820,-6884,18028,-906,468,-2250,1
2792,-6604,17992,-906,654,-2324,1
2728,-6376,18008,-936,725,-2461,1
2612,-6592,18028,-891,882,-2423,1
2804,-6688,18108,-730,1213,-2298,1
2824,-6700,17956,-615,1445,-2351,1
2612,-6532,17928,-584,1597,-2344,1
2496,-6396,17904,-685,1664,-2436,1
2292,-6316,17944,-682,1516,-2462,1
2252,-6292,18052,-658,1459,-2391,1
2276,-6232,17876,-600,1492,-2215,1
2380,-6156,17812,-572,1666,-2108,1
2276,-6080,17904,-654,1598,-2060,1
2208,-6344,17912,-664,1327,-2048,1
1884,-5860,17924,-639,976,-1716,1
2128,-5884,17772,-712,813,-1726,1
2116,-6080,17668,-897,641,-1871,1
2388,-6032,17552,-1247,544,-2251,1
2536,-6032,17660,-1426,633,-2586,1
2596,-6032,17700,-1423,616,-2721,1
2380,-6088,17864,-1339,671,-2644,1
2544,-6244,17856,-1360,976,-2574,1
2556,-6416,17964,-1255,1398,-2490,1
2552,-6320,17912,-1240,1919,-2385,1
1328,-6460,18252,-546,1978,-1665,1
1568,-6068,18256,-560,1805,-1652,1
1304,-6004,17944,-693,1490,-1567,1
1592,-5964,17916,-998,1180,-1618,1
1916,-6148,17836,-1200,1039,-1733,1
2112,-6440,17896,-1255,1099,-1901,1
2220,-6580,18056,-1288,1312,-2160,1
2008,-6728,18336,-1083,1547,-2176,1
1908,-6360,18352,-913,1940,-2155,1
1524,-6304,18332,-835,2214,-2092,1
1440,-6224,18768,-337,1979,-1679,1
1172,-6236,18692,-349,1882,-1761,1
1132,-6296,18612,-520,1551,-1889,1
1072,-6288,18736,-724,1270,-2048,1
1284,-6380,18708,-848,1022,-2189,1
1372,-6232,18744,-874,900,-2269,1
1656,-6284,18508,-847,934,-2214,1
1692,-6460,18528,-711,1055,-2252,1
1524,-6532,18516,-643,1046,-2288,1
1440,-6444,18500,-713,987,-2484,1
928,-5936,17928,-1099,453,-2978,1
852,-5944,17912,-1276,83,-3138,1
1040,-5760,17636,-1463,-85,-3216,1
1392,-5648,17448,-1539,89,-3078,1
1732,-5812,17348,-1414,557,-2573,1
1876,-5940,17372,-1393,891,-2324,1
1664,-6184,17692,-1467,892,-2410,1
1600,-6152,17848,-1750,591,-2909,1
1740,-6332,17932,-2040,360,-3365,1
2048,-6388,17772,-2180,556,-3699,1
680,-6244,18892,-1159,467,-3176,1
852,-6344,18728,-1223,252,-3250,1
832,-6416,18888,-1298,230,-3311,1
1032,-6232,18832,-1264,279,-3316,1
1276,-6296,18824,-1254,475,-3220,1
1200,-6272,18800,-1163,614,-3048,1
1340,-6476,18528,-1086,834,-2891,1
1392,-6652,18488,-991,928,-2981,1
1648,-6592,18464,-959,1137,-3166,1
1604,-6576,18268,-803,1395,-3300,1
808,-6048,18156,-23,2188,-2513,1
588,-6128,18228,-167,1923,-2651,1
584,-5912,18512,-316,1684,-2870,1
444,-5928,18408,-373,1527,-2911,1
628,-5900,18480,-399,1369,-2747,1
780,-5848,18308,-316,1384,-2567,1
848,-5860,18200,-349,1444,-2589,1
988,-5912,17928,-289,1485,-2642,1
844,-5932,17752,-277,1683,-2736,1
640,-5908,17924,-294,2117,-2779,1
312,-5796,18504,-546,1092,-2596,1
388,-5828,18304,-436,1167,-2697,1
340,-5556,18108,-355,1356,-2686,1
344,-5536,18280,-313,1774,-2514,1
264,-5428,18528,-236,2169,-2295,1
96,-5080,18572,-313,2409,-2138,1
-296,-5312,18732,-363,2081,-1994,1
-292,-5548,18672,-364,1948,-1910,1
-344,-5576,18704,-323,1689,-1842,1
-36,-5548,18688,-213,1483,-1776,1
-268,-5616,18572,-895,793,-2030,1
-120,-5556,18552,-868,569,-2109,1
28,-5516,18448,-927,564,-2119,1
152,-5720,18288,-864,521,-2132,1
396,-5744,18304,-749,593,-2144,1
196,-5840,18184,-663,629,-2147,1
100,-5524,17952,-622,532,-2145,1
-28,-5276,18304,-780,197,-2204,1
40,-5208,18164,-1020,-58,-2183,1
236,-5508,18436,-1398,-180,-2321,1
388,-5740,18744,-1274,877,-2496,1
316,-5912,18932,-1277,954,-2704,1
136,-5876,18968,-1166,970,-2748,1
128,-5680,18912,-944,1075,-2616,1
-48,-5800,18800,-674,1226,-2451,1
-108,-5468,18856,-538,1395,-2221,1
-308,-5248,18848,-668,1433,-2056,1
-440,-5280,18760,-816,1308,-1984,1
-224,-5596,18824,-784,1166,-1951,1
-372,-5728,18828,-792,1180,-2008,1
336,-5436,18292,-1021,953,-2116,1
332,-5464,18180,-1109,1048,-2078,1
332,-5628,18228,-1178,1107,-2069,1
404,-5776,18248,-1171,1414,-2088,1
300,-5764,18340,-1024,1475,-2049,1
100,-5472,18416,-1066,1492,-2002,1
-136,-5516,18512,-1135,1466,-1967,1
72,-5716,18240,-1133,1520,-1991,1
-84,-5740,18288,-1117,1613,-1953,1
-104,-5704,18532,-995,1769,-2027,1
-696,-5396,18760,-816,1572,-1060,1
-768,-5412,18908,-908,1463,-1208,1
-908,-5640,19024,-818,1331,-1259,1
-848,-5464,18868,-738,1377,-1194,1
-1084,-5404,18840,-532,1075,-958,1
-936,-5344,18548,-656,1049,-741,1
-856,-5236,18540,-718,1017,-686,1
-948,-5304,18624,-735,1004,-650,1
-932,-5396,18592,-845,861,-590,1
-964,-5512,18500,-826,622,-625,1
-448,-5948,18776,-1167,171,-426,1
-652,-6152,18928,-1030,212,-497,1
-732,-5748,18888,-963,303,-517,1
-856,-5588,18764,-982,139,-413,1
-836,-5572,18680,-997,-170,-318,1
-452,-5548,18700,-1092,-240,-276,1
-372,-5756,18700,-1070,-177,-185,1
-140,-5736,18480,-1041,-67,-176,1
-684,-6080,18440,-951,-692,-602,1
-588,-6044,18452,-927,-700,-625,1
-440,-5920,18436,-911,-675,-608,1
-460,-5920,18380,-898,-640,-616,1
-252,-5892,18400,-878,-557,-774,1
-172,-5836,18312,-896,-490,-914,1
-84,-5988,18244,-978,-504,-1042,1
-28,-6048,18292,-1029,-438,-1146,1
-56,-5964,18364,-1086,-352,-1211,1
-60,-6080,18308,-1084,-273,-1143,1
708,-6384,18156,-1658,268,-2990,1
572,-6504,18276,-1589,527,-3109,1
308,-6584,18464,-1442,797,-3001,1
336,-6780,18376,-1253,1173,-2809,1
272,-6588,18220,-1127,1586,-2578,1
156,-6568,18360,-993,2005,-2383,1
-28,-6432,18448,-853,2183,-2415,1
-356,-6468,18732,-936,2042,-2462,1
-400,-6620,18820,-941,1816,-2645,1
-368,-6684,18860,-929,1642,-2887,1
-932,-6420,18664,-949,906,-3447,1
-836,-6268,18480,-1021,870,-3603,1
-1020,-6192,18444,-1138,652,-3579,1
-968,-6108,18644,-1272,496,-3642,1
-820,-6072,18328,-1429,246,-3804,1
-808,-5948,18416,-1538,-108,-3908,1
-748,-5976,18188,-1656,-361,-3949,1
-428,-6296,18092,-1741,-362,-3966,1
-268,-6220,18052,-1770,-188,-3958,1
-160,-6236,17964,-1720,-44,-3961,1
-144,-6780,18356,-879,-89,-3636,1
-68,-6608,18228,-751,46,-3512,1
-44,-6372,18168,-664,228,-3253,1
88,-6316,18188,-749,206,-3060,1
236,-6668,18176,-818,180,-3016,1
492,-6824,18416,-792,285,-3184,1
544,-6892,18420,-655,437,-3279,1
616,-6824,18428,-482,732,-3212,1
588,-6792,18400,-293,1024,-3047,1
476,-6776,18324,-127,1388,-2856,1
344,-6428,18044,-77,2621,-2403,1
536,-6748,18388,1,2623,-2410,1
620,-6740,18000,93,2801,-2626,1
632,-6776,18136,165,2950,-2892,1
392,-6652,18300,117,3116,-3091,1
0,-6720,18292,144,3166,-3217,1
-308,-6460,18212,145,2987,-3178,1
-356,-6240,18172,-118,2590,-3232,1
-336,-6296,18264,-279,2151,-3417,1
-332,-6468,18292,-403,1840,-3646,1
-892,-6212,18456,-120,2113,-4197,1
-832,-6268,18620,-58,2206,-4247,1
-944,-6108,18364,99,2388,-4057,1
-1044,-6008,18432,202,2487,-3775,1
-1188,-6032,18276,303,2414,-3626,1
-1292,-5964,18468,316,2304,-3633,1
-1316,-5924,18292,279,2237,-3598,1
-1176,-6004,18144,266,2139,-3649,1
-1260,-5804,18268,256,2154,-3573,1
-1224,-5596,18436,184,1976,-3549,1
-1780,-5604,18780,-453,475,-4273,1
-1484,-5648,18948,-313,612,-4118,1
-1376,-5748,18812,-17,1107,-3723,1
-1400,-5836,18420,204,1590,-3241,1
-1440,-5876,18632,353,1965,-2980,1
-1580,-5684,18556,464,1984,-2978,1
-1712,-5496,18724,301,1721,-3074,1
-1532,-5640,18628,222,1534,-3190,1
-1696,-5548,18580,75,1228,-3212,1
-1680,-5740,18468,-53,969,-3417,1
-2172,-4952,18296,477,2635,-2429,1
-2240,-4788,18464,319,2420,-2303,1
-2272,-4836,18496,116,2011,-2283,1
-1944,-4944,18584,-95,1727,-2589,1
-1840,-5444,18600,-154,1463,-2818,1
-1588,-5392,18628,-165,1436,-3142,1
-1444,-5388,18660,-56,1496,-3247,1
-1548,-5352,18680,32,1633,-3282,1
-1804,-5068,18844,55,1713,-3323,1
-1968,-5024,18916,-11,1710,-3219,1
-1848,-4804,18692,315,1448,-3448,1
-1852,-4760,18888,196,1287,-3538,1
-1784,-4908,18704,208,1092,-3584,1
-1732,-4892,18756,236,1028,-3526,1
-1536,-5112,18700,351,1241,-3392,1
-1388,-5148,18756,577,1464,-3136,1
-1364,-5196,18624,647,1779,-3097,1
-1572,-4964,18648,572,1865,-3163,1
-1772,-4984,18748,517,1712,-3339,1
-1888,-4840,18408,755,1449,-3279,1
-2200,-4448,18784,1065,380,-3463,1
-2304,-4236,18792,939,214,-3814,1
-2348,-3920,18928,773,-102,-3995,1
-2412,-4044,18928,654,-333,-4077,1
-2384,-4028,18768,528,-365,-3837,1
-2156,-3832,18620,391,-212,-3546,1
-2120,-3896,18428,338,-78,-3189,1
-2088,-3736,18456,211,148,-2820,1
-1780,-3776,18384,81,427,-2484,1
-1560,-3832,18292,88,828,-2343,1
-2312,-3588,19008,-176,668,-2827,1
-2236,-3712,18960,-361,719,-2718,1
-2332,-3948,18624,-266,611,-2563,1
-2216,-3844,18660,-423,766,-2540,1
-2284,-4080,18612,-389,832,-2438,1
-2096,-4156,18740,-360,1084,-2476,1
-2016,-4136,18728,-249,1271,-2428,1
-2128,-4064,18864,-250,1380,-2527,1
-2224,-4116,18768,-351,1447,-2541,1
-2260,-4196,19064,-293,1495,-2609,1
-2740,-3876,18920,-547,568,-2747,1
-2704,-4044,18904,-580,605,-2726,1
-2588,-4132,19084,-404,596,-2741,1
-2608,-4112,18932,-309,648,-2707,1
-2600,-3916,18948,-317,753,-2579,1
-2632,-3852,18952,-265,763,-2489,1
-2792,-3588,18876,-302,736,-2311,1
-2516,-3672,18684,-399,712,-2179,1
-2444,-3900,18804,-293,558,-2114,1
-2316,-4056,18672,-379,579,-2184,1
-2700,-3868,18548,-872,400,-2942,1
-2680,-3716,18648,-946,259,-2900,1
-2576,-3900,18692,-985,257,-2891,1
-2548,-3920,18616,-1002,282,-2859,1
-2584,-3764,18516,-1039,511,-2670,1
-2572,-3832,18456,-974,706,-2474,1
-2476,-3888,18328,-865,954,-2198,1
-2480,-3776,18344,-834,1270,-1934,1
-2612,-3696,18164,-887,1358,-1855,1
-2968,-3460,18348,-1100,1307,-2000,1
-3860,-4016,19012,-1068,1826,-1096,1
-3836,-4016,19000,-913,1815,-933,1
-3984,-3896,18948,-855,1679,-848,1
-4160,-3720,18820,-873,1395,-699,1
-4116,-3744,18872,-981,1121,-514,1
-4176,-3728,18728,-1026,768,-392,1
-3992,-3688,18704,-1066,512,-345,1
-3616,-3964,18712,-1107,412,-114,1
-3396,-4128,18960,-1028,383,-233,1
-3396,-4080,18928,-1063,314,-229,1
-2704,-4616,18684,-935,-160,-198,1
-2876,-4248,18500,-954,-119,-125,1
-248,-6636,18384,-1476,60,78,1
-284,-6532,18708,-1296,150,46,1
-592,-6524,18728,-1138,202,63,1
-428,-6292,18544,-1130,187,102,1
-488,-6268,18488,-1168,124,288,1
-500,-6468,18396,-1229,87,398,1
-400,-6520,18320,-1260,-163,375,1
-336,-6596,18368,-1306,-259,294,1
-60,-6648,18444,-1244,-235,147,1
-168,-6616,18500,-1164,-113,127,1
716,-6960,18296,-1093,-21,-1621,1
772,-6936,18316,-1017,19,-1693,1
700,-7020,18252,-984,-51,-1845,1
668,-6968,18236,-1043,-121,-2025,1
728,-6940,18312,-1104,-255,-2228,1
1012,-6896,18196,-1227,-273,-2461,1
852,-7100,18116,-1238,-321,-2531,1
1148,-7156,18388,-1240,-187,-2693,1
1024,-7224,18184,-1254,-17,-2890,1
1188,-7220,18436,-1202,134,-3047,1
300,-6768,18204,-479,949,-2348,1
408,-6644,18344,-444,960,-2406,1
400,-6772,18216,-433,1000,-2377,1
596,-6468,18180,-423,1086,-2486,1
484,-6572,18228,-461,1223,-2567,1
328,-6284,18332,-461,1211,-2607,1
284,-6512,18380,-471,1228,-2474,1
152,-6628,18384,-312,1285,-2346,1
212,-6516,18492,-246,1355,-2253,1
60,-6432,18424,-253,1342,-2246,1
760,-6652,18012,-267,1626,-2496,1
576,-6528,18120,-255,1679,-2590,1
696,-6564,18196,-245,1738,-2579,1
592,-6376,18232,-168,1951,-2561,1
484,-6392,18400,-107,2241,-2366,1
272,-6348,18292,-16,2289,-2256,1
176,-6256,18028,-116,2146,-2395,1
132,-6468,18180,-223,1917,-2683,1
48,-6416,18376,-331,1657,-2886,1
84,-6320,18336,-354,1402,-3017,1
452,-5968,18320,123,2752,-3266,1
304,-5880,18380,41,2832,-3140,1
324,-6004,18380,66,2975,-3131,1
236,-6092,18608,167,2932,-3176,1
132,-6168,18632,287,3068,-3152,1
132,-6212,18544,438,3250,-3166,1
-72,-5812,18360,433,3269,-3250,1
-348,-5572,18412,258,3116,-3345,1
-540,-5660,18340,25,2816,-3376,1
-628,-5772,18520,-72,2633,-3297,1
-340,-5712,18672,-226,1589,-3772,1
-424,-5532,18488,-171,1867,-3679,1
-696,-5476,18504,-206,1943,-3571,1
-712,-5420,18716,-181,1855,-3572,1
-804,-5592,18672,-206,1742,-3532,1
-932,-5448,18728,-267,1555,-3527,1
-1204,-5408,18856,-311,1192,-3466,1
-980,-5440,18768,-429,720,-3602,1
-860,-5528,18780,-510,391,-3722,1
-764,-5600,18576,-540,322,-3664,1
-652,-5344,18460,-513,405,-3226,1
-664,-5280,18720,-452,403,-3207,1
-724,-5116,18580,-450,330,-3153,1
-620,-5224,18564,-457,183,-3083,1
-572,-5644,18388,-418,152,-3121,1
-488,-5512,18492,-323,270,-3191,1
-376,-5356,18340,-213,462,-3159,1
-404,-5188,18180,-117,750,-2960,1
-260,-4972,18272,-47,1134,-2593,1
-192,-4832,18376,-73,1488,-2230,1
-1392,-4820,18796,-1255,-1777,-4983,1
-968,-4988,18720,-1334,-2085,-4992,1
-556,-4792,18640,-1262,-1983,-4890,1
-244,-4768,18564,-1057,-1429,-4341,1
184,-4672,18424,-781,-545,-3631,1
280,-4832,18272,-509,248,-3038,1
452,-4792,18116,-361,831,-2711,1
340,-4740,18356,-375,1128,-2708,1
-84,-4856,18140,-461,1088,-2724,1
168,-4808,18364,-560,965,-2950,1
-72,-4936,18216,-425,2913,-2361,1
-340,-4772,18492,-373,3107,-2225,1
-828,-4700,18684,-459,2900,-2372,1
-780,-4924,19068,-632,2286,-2781,1
-1244,-5100,19380,-911,1247,-3566,1
-1196,-4996,19596,-1243,-96,-4377,1
-1016,-5168,19396,-1391,-1209,-5005,1
-576,-5072,19284,-1489,-1776,-5305,1
40,-4796,18996,-1388,-1753,-5292,1
320,-4624,18672,-1271,-1303,-4868,1
412,-5528,18720,-523,2338,-4217,1
440,-5400,18572,-367,2724,-4376,1
-52,-5240,18688,-410,2481,-4786,1
-688,-5024,18640,-800,1864,-5265,1
-608,-4780,18760,-1142,1233,-5679,1
-464,-4660,18792,-1412,882,-5624,1
-416,-4872,18932,-1389,787,-5414,1
48,-5284,18844,-1248,1002,-5090,1
308,-5200,19024,-850,1268,-4992,1
348,-5104,18852,-672,1500,-4883,1
-840,-5008,18812,-557,1789,-4289,1
-840,-5016,18924,-375,1988,-4069,1
-812,-4904,18584,-278,2093,-3931,1
-956,-4716,18628,-312,2111,-3786,1
-1180,-4756,18772,-297,1991,-3766,1
-1212,-4436,18764,-427,1873,-3726,1
-1304,-4504,18616,-535,1691,-3583,1
-1288,-4464,18720,-688,1509,-3482,1
-1372,-4696,18660,-811,1199,-3349,1
-1056,-4936,18656,-844,1043,-3338,1
-184,-4768,18432,-1992,953,-4266,1
-244,-4536,18472,-2224,1097,-3863,1
-364,-4696,18380,-2596,1242,-3457,1
-264,-5168,18396,-2685,1488,-3056,1
-96,-5528,18632,-2409,1730,-2855,1
-336,-5840,18636,-2175,1893,-2885,1
-588,-5776,19024,-2019,1729,-3086,1
-856,-5680,18992,-1950,1471,-3220,1
-884,-5616,19192,-1783,1188,-3184,1
-1060,-5612,19164,-1624,904,-2877,1
-688,-5980,18788,-1571,-238,-1055,1
-576,-5924,18668,-1509,-138,-1229,1
-472,-6012,18748,-1486,-55,-1449,1
-640,-6000,18752,-1331,59,-1544,1
-776,-6184,18768,-1224,240,-1622,1
-876,-6020,18620,-1139,348,-1575,1
-1024,-6032,18704,-1099,393,-1487,1
-1244,-5900,18572,-1133,299,-1347,1
-1456,-6080,18712,-1146,167,-1171,1
-1264,-6124,18724,-1119,70,-1100,1
-1068,-6000,18304,-395,858,-862,1
-956,-6004,18436,-435,924,-952,1
-1072,-6128,18752,-465,902,-960,1
-956,-6148,18812,-310,690,-958,1
-828,-6188,18780,-225,410,-1074,1
-792,-6300,18560,-157,195,-1343,1
-472,-6120,18428,-240,45,-1630,1
-380,-5868,18420,-335,-125,-1888,1
-520,-5960,18396,-549,-214,-2016,1
-336,-5996,18556,-736,-331,-2008,1
320,-6656,19020,-1486,-1403,-3599,1
296,-6832,19208,-1494,-1393,-3695,1
400,-6836,19224,-1390,-1179,-3706,1
412,-6916,19240,-1182,-966,-3553,1
472,-7008,19192,-1070,-745,-3380,1
652,-7100,19052,-946,-540,-3294,1
888,-7160,18812,-864,-430,-3437,1
908,-7180,18788,-807,-242,-3740,1
900,-6984,19028,-739,137,-3923,1
580,-6940,19120,-574,445,-3900,1
224,-5936,18332,125,938,-4726,1
-40,-5796,18376,170,1316,-4478,1
-308,-5676,18332,116,1362,-4134,1
-432,-5576,18568,27,970,-4007,1
-392,-5444,18312,-216,370,-4170,1
-228,-5612,18100,-501,-196,-4531,1
128,-5844,18140,-659,-616,-4915,1
500,-5852,18164,-760,-792,-5323,1
608,-5980,18084,-670,-685,-5529,1
760,-6028,18060,-582,-356,-5614,1
368,-5952,18148,-223,2214,-4878,1
240,-5812,17956,-248,2385,-4848,1
-16,-5812,18288,-281,2434,-4832,1
4,-5892,18300,-250,2496,-4852,1
176,-5900,18168,-176,2688,-4810,1
124,-5892,18500,-48,2995,-4847,1
-168,-5936,18668,27,3399,-4832,1
-500,-5828,18892,223,3610,-4910,1
-824,-5860,18560,359,3793,-4719,1
-908,-5640,18728,475,3882,-4479,1
-120,-5300,18692,-264,750,-4836,1
-256,-5304,18664,-124,1083,-4709,1
-252,-5256,18900,63,1528,-4556,1
-420,-5292,18576,145,1757,-4245,1
-328,-5440,18632,172,1982,-4116,1
-476,-5364,18616,137,2026,-4100,1
-484,-5432,18584,181,2144,-4263,1
-692,-5172,18784,204,2097,-4414,1
-1020,-5072,18672,247,2039,-4419,1
-932,-4984,18636,205,1937,-4331,1
-892,-4828,18540,-219,871,-4153,1
-968,-4644,18460,-283,672,-4151,1
-932,-4652,18400,-462,382,-4194,1
-732,-4904,18468,-532,172,-4193,1
-444,-5064,18476,-587,138,-4314,1
-332,-4864,18596,-547,175,-4411,1
-472,-4840,18688,-559,275,-4457,1
-628,-4776,18696,-605,186,-4425,1
-720,-4864,18512,-767,33,-4425,1
-588,-5020,18616,-872,-50,-4394,1
-616,-5028,18828,-961,-1064,-4252,1
-312,-5040,18904,-877,-1299,-4431,1
-32,-5112,18684,-778,-1183,-4322,1
188,-4968,18348,-639,-611,-3948,1
208,-4908,18164,-395,213,-3430,1
36,-4680,18108,-325,849,-2992,1
-264,-4404,18208,-464,1093,-2823,1
-572,-4424,18748,-603,876,-2756,1
-436,-4664,18944,-632,684,-2662,1
-152,-4796,19052,-544,586,-2614,1
-152,-4440,18684,-507,994,-2236,1
40,-4592,18552,-551,812,-2407,1
208,-4544,18464,-672,831,-2512,1
392,-4628,18544,-680,995,-2446,1
492,-4800,18300,-639,1330,-2329,1
768,-4792,18380,-577,1777,-2408,1
624,-4684,18536,-597,2195,-2582,1
272,-4672,18864,-656,2375,-2671,1
64,-4744,18908,-447,2462,-2650,1
-252,-4556,18808,-560,2367,-2453,1
-224,-4696,18852,-1189,996,-3740,1
-200,-4736,18856,-1133,1146,-3639,1
-160,-4776,18860,-941,1412,-3478,1
24,-4960,18788,-794,1767,-3293,1
-100,-4868,18772,-667,2204,-3288,1
-296,-4696,18812,-606,2358,-3454,1
-580,-4836,18792,-599,2291,-3542,1
-752,-4900,18828,-730,2241,-3602,1
-1000,-4704,18688,-850,2014,-3643,1
-1336,-4696,18804,-977,1619,-3561,1
-1460,-4688,18664,-536,1541,-2927,1
-1692,-4448,18748,-415,1559,-2809,1
-1684,-4212,18700,-489,1691,-2700,1
-2008,-4232,18728,-609,1585,-2487,1
-2312,-4264,18724,-754,1339,-2195,1
-1952,-4524,18776,-722,1148,-1999,1
-1796,-4504,19036,-640,1006,-1894,1
-1484,-4576,19040,-558,877,-1873,1
-1064,-4524,18932,-550,699,-1915,1
-652,-4720,18720,-494,744,-1993,1
-16,-4108,17056,-922,2728,-2645,1
-8,-4152,17244,-1113,3047,-2632,1
-212,-4136,17476,-1366,3454,-2693,1
-660,-4304,17428,-1506,3707,-2856,1
-936,-4564,17852,-1596,3735,-2913,1
-832,-4708,18432,-1712,3747,-3266,1
-1356,-4976,18820,-1830,3409,-3726,1
-1836,-5176,19476,-1847,2666,-4425,1
-1936,-5512,19852,-1757,1715,-5227,1
-2024,-5664,19692,-1359,925,-5777,1
-1492,-4864,18776,-1902,-2371,-5305,1
-1152,-4992,18684,-1780,-1480,-4597,1
-1524,-5056,18496,-1651,-576,-4022,1
-1752,-5048,18628,-1584,60,-3531,1
-2088,-5088,18928,-1470,478,-3117,1
-2480,-5228,19064,-1407,560,-2882,1
-2972,-5072,19208,-1472,220,-2751,1
-3092,-5064,19460,-1538,-500,-2737,1
-2868,-4988,19136,-1652,-1166,-2829,1
-2424,-4964,18912,-1645,-1565,-2843,1
-1840,-5012,18584,-1387,201,-858,1
-1772,-5088,18848,-1430,161,-772,1
-1804,-5152,18708,-1440,38,-615,1
-1680,-4956,18688,-1564,-103,-570,1
-1664,-5324,18680,-1636,-275,-594,1
-1584,-5204,18640,-1726,-376,-517,1
-1364,-5492,18704,-1692,-449,-387,1
-1104,-5804,18724,-1523,-341,-362,1
-1072,-5892,18548,-1325,11,-188,1
-1096,-5396,18800,-1245,204,-48,1
-768,-5520,18660,-642,-944,468,1
-736,-5456,18748,-647,-1071,641,1
-544,-5516,18744,-683,-1216,705,1
-244,-5696,18600,-730,-1332,621,1
-8,-5832,18528,-723,-1315,410,1
104,-5740,18356,-646,-1188,122,1
112,-5496,18484,-614,-1006,10,1
80,-5452,18244,-623,-781,110,1
-80,-5416,18388,-613,-647,211,1
-352,-5160,18156,-614,-594,360,1
1220,-6004,18840,-990,-44,-1456,1
1156,-5884,18888,-985,-137,-1488,1
996,-5932,18628,-1094,-466,-1719,1
1208,-5848,18612,-1300,-830,-2078,1
1348,-5796,18616,-1651,-1027,-2535,1
1456,-5748,18332,-1570,-1244,-2869,1
1480,-5560,18208,-1774,-1176,-3182,1
1416,-5412,18196,-1930,-920,-3319,1
1412,-5504,18172,-1978,-617,-3348,1
1512,-5704,18504,-1933,-209,-3186,1
1636,-6116,18672,-1575,-1218,-2986,1
1660,-6048,18640,-1476,-1248,-3044,1
1712,-6060,18688,-1400,-1177,-2988,1
1796,-6020,18556,-1331,-996,-2718,1
2056,-6048,18280,-1162,-698,-2457,1
2184,-6068,18156,-1052,-395,-2248,1
2024,-5976,18116,-994,-193,-2146,1
2044,-5704,18480,-1114,-166,-2217,1
1964,-5920,18604,-1162,-424,-2148,1
2236,-6032,18620,-1182,-593,-2125,1
2328,-6180,18540,-1014,1781,-3230,1
2096,-6080,18560,-854,1720,-3286,1
2020,-5976,18420,-868,1537,-3272,1
2168,-5912,18196,-877,1557,-3481,1
2076,-5732,18152,-936,1726,-3553,1
2008,-5744,18248,-944,1910,-3528,1
1912,-5520,18528,-992,1992,-3464,1
1716,-5812,18508,-947,1973,-3420,1
1500,-5668,18384,-937,1913,-3347,1
1340,-5796,18464,-950,1749,-3291,1
1452,-5808,18568,-817,1149,-2707,1
1484,-5712,18632,-836,1114,-2669,1
1692,-5848,18520,-831,1119,-2704,1
1616,-5944,18684,-793,1112,-2826,1
1548,-5760,18708,-809,1060,-2922,1
1528,-5660,18540,-849,957,-2886,1
1504,-5712,18728,-826,919,-2882,1
1492,-5820,18616,-807,824,-2773,1
1524,-5728,18364,-824,780,-2737,1
1768,-5712,18488,-868,832,-2776,1
1704,-5688,18556,-600,1332,-2949,1
1668,-5624,18308,-630,1238,-2912,1
1624,-5584,18268,-708,1165,-2859,1
1788,-5448,18284,-711,1062,-2804,1
1844,-5404,18132,-854,1072,-2876,1
2084,-5628,18196,-967,1154,-3031,1
2036,-5708,18120,-1055,1202,-3205,1
1964,-5748,18232,-1062,1318,-3358,1
1968,-5804,18400,-1044,1564,-3556,1
1760,-5800,18696,-917,1814,-3496,1
1696,-5696,18608,-727,1171,-2841,1
1800,-5740,18404,-674,1275,-2800,1
1940,-5644,18124,-780,1396,-3013,1
1896,-5396,18088,-829,1628,-3152,1
1744,-5336,18108,-853,1870,-3105,1
1524,-5160,18432,-862,2174,-2986,1
1352,-5220,18560,-820,2356,-2773,1
1224,-5336,18748,-781,2442,-2581,1
940,-5416,18840,-650,2342,-2469,1
1204,-5744,18712,-544,2245,-2490,1
1664,-5532,18316,-1304,1264,-3081,1
1460,-5676,18416,-1240,1304,-3334,1
1276,-5448,18548,-1255,1236,-3424,1
1228,-5560,18512,-1216,1263,-3434,1
1284,-5504,18560,-1151,1354,-3341,1
1260,-5272,18532,-1140,1412,-3286,1
1308,-5312,18392,-1256,1372,-3285,1
1496,-5372,18324,-1358,1387,-3473,1
1400,-5384,18140,-1500,1419,-3690,1
1264,-5540,18292,-1532,1439,-3697,1
1228,-5588,18688,-1471,1239,-4025,1
1268,-5772,18792,-1457,1359,-3943,1
1268,-5868,18932,-1330,1514,-3868,1
1344,-5828,18852,-1165,1707,-3754,1
1184,-5892,18764,-1108,1861,-3676,1
1088,-5600,18656,-1160,1901,-3736,1
904,-5540,18544,-1363,1729,-3952,1
716,-5620,18944,-1487,1404,-4118,1
712,-5756,19080,-1532,1130,-4238,1
688,-5728,19276,-1412,902,-4261,1
360,-5688,18860,-1293,374,-3958,1
588,-5688,18880,-1195,292,-3976,1
504,-5820,19004,-1057,184,-3899,1
532,-5648,19072,-977,-11,-3783,1
804,-5632,18940,-894,-81,-3625,1
1148,-5648,18768,-766,71,-3497,1
1352,-5576,18640,-700,322,-3314,1
1404,-5552,18508,-667,479,-3197,1
1252,-5372,18488,-669,573,-3133,1
1052,-5448,18292,-730,450,-3144,1
1156,-5356,18472,-734,1216,-3107,1
1140,-5512,18548,-747,1169,-2970,1
1296,-5472,18576,-734,1208,-2901,1
1500,-5600,18320,-684,1210,-2915,1
1408,-5480,18384,-622,1341,-2904,1
1524,-5564,18276,-629,1457,-2916,1
1260,-5472,18340,-598,1564,-2972,1
1284,-5220,18380,-595,1624,-2975,1
1064,-5160,18504,-568,1740,-2869,1
1048,-5148,18736,-551,1746,-2743,1
500,-4984,18684,-444,2066,-2170,1
544,-4888,18416,-547,1993,-2215,1
536,-5072,18592,-686,1805,-2279,1
496,-5240,18676,-680,1692,-2313,1
732,-5232,18664,-645,1742,-2324,1
732,-5316,18684,-491,1812,-2350,1
576,-5024,18592,-472,1838,-2331,1
360,-5116,18704,-525,1623,-2275,1
156,-5052,18636,-747,1129,-2436,1
432,-4968,18464,-972,792,-2698,1
1016,-5560,18504,-896,852,-2094,1
952,-5340,18564,-817,1044,-2260,1
552,-5124,18676,-901,994,-2473,1
336,-4988,18676,-949,696,-2547,1
372,-4756,18632,-1135,452,-2460,1
596,-5000,18780,-1166,304,-2310,1
772,-5240,18600,-1210,227,-2392,1
1320,-5356,18540,-1141,374,-2508,1
1588,-5472,18580,-987,773,-2643,1
1656,-5460,18256,-831,1385,-2713,1
588,-5284,18544,-1247,751,-2926,1
880,-5144,18428,-1296,829,-3009,1
740,-5092,18164,-1349,962,-2952,1
688,-5156,18056,-1412,1154,-2906,1
440,-5264,18260,-1424,1268,-2895,1
180,-5144,18348,-1500,1284,-2893,1
72,-5152,18608,-1511,1163,-2816,1
12,-5244,18564,-1574,1117,-2739,1
124,-5228,18496,-1567,1189,-2701,1
132,-5496,18500,-1476,1330,-2653,1
-572,-5452,18860,-1205,1418,-1720,1
-868,-5272,18824,-1146,1528,-1640,1
-872,-5172,18948,-1114,1499,-1550,1
-968,-5060,19024,-1112,1375,-1345,1
-952,-5112,19036,-1090,1169,-1228,1
-900,-5052,18956,-1166,1012,-1316,1
-1060,-5164,18972,-1208,701,-1364,1
-996,-5340,18980,-1167,513,-1300,1
-688,-5280,18924,-1037,636,-1076,1
-728,-5196,18876,-915,818,-810,1
1016,-4212,18728,-1034,-21,-345,1
828,-4364,18744,-1043,178,-325,1
760,-4300,19108,-1037,276,-332,1
432,-4392,19092,-1013,282,-319,1
276,-4188,19104,-981,113,-249,1
312,-4332,19148,-980,-114,-137,1
524,-4228,18952,-1031,-401,-198,1
640,-4420,18988,-1063,-411,-259,1
712,-4244,18944,-1054,-335,-236,1
776,-4340,18976,-1010,-215,-140,1
400,-4132,18952,-1066,-272,-158,1
388,-4024,18844,-1161,-483,-189,1
600,-4268,18968,-1292,-849,-215,1
928,-4420,18816,-1444,-1077,-300,1
1096,-4696,18896,-1589,-1229,-466,1
1380,-4860,18992,-1600,-1434,-695,1
1760,-4844,19040,-1598,-1432,-940,1
2020,-4836,19164,-1599,-1335,-1122,1
2032,-4836,19168,-1457,-1129,-1206,1
2036,-5152,19312,-1263,-847,-1292,1
2008,-4804,18712,-1417,-1037,-2449,1
2036,-4952,18720,-1591,-1215,-2732,1
2264,-5012,18912,-1618,-1226,-2906,1
2284,-5068,18712,-1558,-1051,-2960,1
2360,-5012,18772,-1462,-683,-2938,1
2452,-4968,18500,-1333,-296,-2861,1
2184,-4868,18476,-1384,16,-2828,1
2132,-4916,18480,-1436,129,-2855,1
2184,-5048,18596,-1445,254,-3010,1
2176,-5144,18868,-1362,362,-3224,1
1648,-4804,18452,-1096,1259,-3889,1
1612,-4796,18548,-1034,1248,-3960,1
1424,-4676,18704,-968,1246,-4186,1
1024,-4636,18860,-1009,1199,-4332,1
808,-4276,18820,-1090,845,-4361,1
656,-4384,18760,-1268,318,-4263,1
932,-4552,18888,-1431,-124,-4211,1
1324,-4636,18832,-1491,-364,-4381,1
1684,-4752,18896,-1482,-403,-4504,1
1824,-4768,18852,-1395,-181,-4464,1
1632,-4712,19048,-766,1441,-3771,1
1696,-4896,19028,-601,1635,-3529,1
1524,-4700,18896,-466,1736,-3440,1
1488,-4576,18692,-460,1654,-3580,1
1344,-4292,18560,-633,1447,-3626,1
1360,-4236,18700,-816,1300,-3650,1
1576,-4416,18772,-834,1132,-3812,1
1484,-4504,18600,-933,1153,-3800,1
1860,-4632,18764,-933,1303,-3820,1
1756,-4684,18644,-943,1651,-3737,1
1076,-4528,18888,-740,1829,-3274,1
920,-4492,19052,-707,1937,-3226,1
820,-4292,19060,-706,2003,-3207,1
1028,-4408,18992,-732,1973,-3183,1
936,-4628,19168,-692,2008,-3173,1
816,-4540,19116,-563,2079,-3100,1
784,-4552,19296,-400,2103,-3012,1
648,-4320,19252,-340,1978,-2907,1
500,-4212,19028,-397,1682,-2824,1
684,-4208,18892,-532,1400,-2842,1
0,-4036,18872,-1352,-279,-4170,1
-160,-3864,18980,-1837,-1182,-4471,1
-148,-4076,19024,-2176,-1916,-4580,1
196,-4272,19116,-2235,-2225,-4535,1
592,-4516,19440,-2087,-2164,-4344,1
936,-4588,19400,-1805,-2027,-4092,1
1208,-4620,19184,-1651,-1885,-3961,1
1564,-4824,18752,-1562,-1587,-4013,1
1944,-4732,18456,-1438,-919,-4062,1
2028,-4760,18660,-1291,-99,-3924,1
1208,-4496,18928,-874,671,-3455,1
1216,-4276,18776,-803,872,-3335,1
1164,-4320,18496,-753,1135,-3046,1
1112,-4276,18520,-749,1368,-2783,1
1004,-4240,18360,-855,1479,-2619,1
1136,-4112,18648,-934,1368,-2640,1
1080,-3968,18888,-987,1212,-2797,1
948,-3984,18880,-1096,959,-2937,1
1004,-4012,19000,-1148,762,-2959,1
1196,-4232,18864,-1180,700,-2861,1
1148,-4648,18996,-724,1414,-3255,1
912,-4364,18860,-800,1299,-3154,1
748,-4248,18664,-980,908,-3107,1
864,-4364,18488,-1266,374,-3151,1
1088,-4336,18444,-1461,-52,-3367,1
1424,-4356,18268,-1657,-322,-3593,1
1732,-4180,18116,-1822,-252,-3850,1
1756,-4124,18420,-1818,-94,-4127,1
1508,-4388,18856,-1772,101,-4060,1
1208,-4516,19092,-1724,54,-3981,1
692,-4236,19152,-485,2360,-3106,1
232,-4260,19264,-528,1989,-3091,1
80,-4416,19304,-756,1321,-3157,1
468,-4364,19344,-885,692,-3247,1
764,-4576,19256,-902,421,-3129,1
1308,-4688,19140,-826,465,-3251,1
1248,-4540,19208,-740,553,-3372,1
1360,-4624,18984,-661,689,-3455,1
1360,-4504,18908,-670,995,-3422,1
1340,-4664,18872,-581,1221,-3193,1
1700,-4528,18552,-661,1216,-3393,1
1616,-4508,18632,-526,1591,-3223,1
1552,-4468,18540,-451,1862,-3117,1
1268,-4424,18564,-457,1973,-3047,1
1040,-4180,18596,-567,1779,-3096,1
968,-4204,18652,-775,1461,-3296,1
964,-4464,18656,-973,1061,-3492,1
1056,-4440,18756,-1119,775,-3590,1
1432,-4516,18668,-1035,871,-3612,1
1580,-4568,18780,-962,1185,-3567,1
1600,-4712,18960,-449,2494,-3506,1
1020,-4636,19068,-440,2534,-3678,1
776,-4340,19100,-519,2242,-3954,1
576,-4228,19044,-634,2011,-4057,1
472,-4360,19092,-717,1885,-4011,1
552,-4272,19068,-745,1916,-3859,1
512,-4332,19140,-631,1975,-3720,1
612,-4476,19144,-513,2101,-3579,1
372,-4400,19192,-332,2029,-3668,1
204,-4388,19192,-365,1884,-3752,1
464,-3944,18836,-301,1347,-3133,1
212,-3712,18752,-419,1605,-3147,1
-12,-3644,18660,-452,1629,-3054,1
-196,-3656,18800,-553,1713,-2949,1
-276,-3716,18900,-651,1703,-2826,1
-416,-3720,19232,-706,1565,-2782,1
-508,-3940,19432,-633,1420,-2833,1
-212,-3924,19364,-491,1360,-2806,1
-180,-3860,18868,-448,1368,-2832,1
-324,-3812,19100,-434,1348,-2961,1
-172,-3584,18596,-783,-181,-2120,1
16,-3600,18544,-942,-470,-2301,1
328,-3560,18468,-1000,-486,-2287,1
612,-3664,18732,-973,-291,-2248,1
828,-3832,18512,-939,-29,-2273,1
748,-3440,18480,-1101,155,-2550,1
492,-3732,18676,-1301,-48,-2730,1
260,-3700,18732,-1591,-429,-3014,1
400,-3848,18664,-1777,-767,-3279,1
584,-3984,18428,-1841,-731,-3396,1
328,-4084,18844,-1695,1338,-2765,1
172,-3924,19148,-1656,1518,-2651,1
-40,-4164,19344,-1591,1575,-2538,1
-60,-4232,19448,-1437,1752,-2338,1
-176,-4380,19292,-1102,2027,-2060,1
-212,-4136,19472,-910,2184,-1798,1
-636,-3992,19444,-934,2101,-1790,1
-940,-3916,19392,-1109,1757,-1880,1
-920,-3968,19380,-1165,1248,-1891,1
-940,-3924,19528,-1174,914,-1790,1
104,-4040,19120,-853,1657,-1441,1
-352,-4052,19164,-838,1678,-1212,1
-572,-3964,19192,-854,1425,-1053,1
-444,-4104,19100,-884,1213,-971,1
-364,-4000,19032,-911,1066,-981,1
-192,-4240,19032,-929,1104,-971,1
-236,-4356,19056,-848,1268,-1016,1
-200,-4256,18912,-664,1429,-974,1
-440,-4128,18984,-636,1356,-1036,1
-672,-4084,19044,-642,1158,-962,1
108,-3800,18688,-1126,1037,-893,1
-168,-3892,18716,-1155,1212,-744,1
-408,-4044,18724,-1142,1235,-532,1
-604,-4068,19116,-1181,1076,-475,1
-552,-4108,19196,-1160,739,-459,1
-348,-4348,19260,-1156,505,-594,1
-388,-4332,19228,-1143,406,-674,1
-420,-4632,19200,-1092,373,-696,1
-452,-4544,18976,-984,420,-682,1
-460,-4332,18944,-963,506,-625,1
1080,-6212,18556,-2485,-513,1790,1
1288,-6504,18532,-2237,-851,1244,1
1676,-6416,18508,-2059,-761,817,1
2072,-6420,18344,-1779,-449,529,1
2072,-6316,18376,-1574,-43,395,1
1964,-6224,18300,-1416,311,391,1
1740,-6212,18492,-1438,627,153,1
1540,-6284,18684,-1310,673,-212,1
1396,-6272,18644,-1268,586,-481,1
1384,-6572,18624,-1198,472,-716,1
1208,-6344,18856,-850,553,-2910,1
1732,-6452,18788,-882,361,-3180,1
1956,-6468,18708,-939,487,-3172,1
2212,-6784,18748,-800,763,-3487,1
2384,-6804,18620,-720,1215,-3662,1
2208,-6624,18900,-611,1553,-3716,1
1940,-6564,18740,-512,1712,-3726,1
1740,-6404,18856,-554,1735,-3981,1
1620,-6456,18872,-572,1838,-4024,1
1776,-6720,18744,-417,2042,-3864,1
1156,-6208,18544,365,2172,-4326,1
860,-6080,18524,388,2365,-4187,1
308,-5744,18600,122,2182,-4122,1
88,-5636,18652,-63,1757,-3996,1
60,-5760,18652,-209,1220,-4028,1
360,-5816,18680,-365,839,-4021,1
452,-6148,18700,-397,591,-4142,1
588,-6168,18676,-350,562,-4237,1
572,-5932,18704,-354,578,-4367,1
600,-5744,18436,-401,532,-4348,1
60,-5312,18512,92,1318,-3617,1
172,-5152,18492,-83,1150,-3451,1
376,-5356,18384,-160,899,-3406,1
716,-5488,18348,-226,736,-3583,1
1140,-5528,18212,-229,911,-3885,1
1136,-5320,18336,-355,1058,-4022,1
1148,-5576,18440,-289,1389,-3881,1
1088,-5796,18536,-74,1979,-3518,1
1160,-5772,18540,138,2557,-3398,1
988,-5372,18672,192,2918,-3355,1
616,-5540,18848,-136,1866,-4159,1
544,-5452,18992,-31,2078,-4074,1
640,-5300,18692,70,2339,-3953,1
432,-5284,18776,79,2408,-3782,1
276,-5344,18708,116,2608,-3772,1
132,-5284,18660,48,2419,-3882,1
116,-5396,18436,-9,2222,-4239,1
-196,-5080,18396,-187,1821,-4551,1
-60,-5096,18760,-334,1651,-4793,1
96,-5032,18688,-348,1649,-4697,1
-1240,-4636,19132,-343,1128,-4450,1
-1388,-4628,19132,-454,719,-4465,1
-1364,-4640,19304,-502,368,-4276,1
-1056,-4476,19168,-471,16,-4123,1
-836,-4796,19036,-489,-192,-3906,1
-424,-4760,19020,-424,-415,-3863,1
60,-4888,19028,-413,-476,-3798,1
560,-4800,18696,-400,-209,-3763,1
1236,-4860,18552,-306,569,-3453,1
1548,-5160,18424,-271,1697,-3210,1
-1116,-4440,19220,82,1586,-2980,1
-1128,-4472,19264,71,1086,-3063,1
-1024,-4572,19200,-7,433,-3234,1
-844,-4468,18976,-112,-101,-3485,1
-420,-4596,18648,-57,-129,-3426,1
356,-4564,18420,-93,743,-3101,1
280,-4708,18264,-21,1852,-2533,1
-228,-4480,18644,50,2867,-2221,1
-1256,-4276,18784,-55,3133,-2064,1
-1940,-4040,18876,-119,2866,-2153,1
-108,-4324,18956,-308,312,-2742,1
-212,-4500,19100,-314,307,-2840,1
-156,-4540,19008,-174,379,-2751,1
-112,-4304,19060,-207,435,-2811,1
-384,-4156,19096,-270,317,-3002,1
-592,-4060,19140,-251,42,-3082,1
-560,-4368,19104,-242,-368,-3247,1
-372,-4392,18884,-226,-492,-3450,1
-220,-4368,18768,-177,-524,-3474,1
-228,-3976,18748,-240,-353,-3241,1
-232,-4232,18816,-598,-889,-3389,1
-52,-4096,18800,-593,-941,-3496,1
-212,-4072,18892,-532,-945,-3452,1
176,-3868,18864,-459,-712,-3336,1
656,-3992,18756,-383,-235,-2970,1
496,-3720,18756,-392,75,-2846,1
404,-4008,18624,-504,117,-2804,1
400,-4128,18892,-532,-17,-2955,1
268,-4040,18748,-548,-171,-3159,1
212,-3900,18844,-529,-227,-3177,1
336,-4044,18952,-538,1020,-2461,1
20,-3720,18820,-585,1094,-2340,1
-160,-3960,18964,-647,842,-2493,1
-244,-4004,18980,-712,552,-2611,1
216,-3976,18912,-666,493,-2612,1
628,-3940,18728,-672,868,-2480,1
256,-3748,18768,-591,1091,-2344,1
412,-3752,18848,-646,1215,-2275,1
340,-3952,18836,-755,1196,-2370,1
432,-3932,18996,-828,1156,-2519,1
-600,-3948,19020,-948,2096,-2380,1
-744,-3964,18980,-965,1877,-2492,1
-604,-4196,19068,-903,1740,-2466,1
-536,-4036,19328,-918,1662,-2480,1
-576,-4228,19176,-831,1537,-2484,1
-420,-4004,19112,-728,1675,-2520,1
-776,-3948,19100,-749,1575,-2476,1
-1104,-3832,19176,-814,1392,-2513,1
-984,-3952,19196,-928,1079,-2575,1
-820,-4164,18920,-916,1017,-2574,1
-1084,-3972,19004,-896,1092,-2302,1
-1200,-3860,18916,-828,989,-2125,1
-1196,-3956,19056,-817,739,-1926,1
-708,-4004,18888,-697,740,-1773,1
-300,-3848,18644,-611,939,-1692,1
-496,-3572,18592,-803,1002,-1731,1
-660,-3508,18468,-974,696,-1853,1
-284,-3624,18504,-1227,585,-1949,1
-112,-3916,18404,-1408,706,-2072,1
-32,-3956,18604,-1461,902,-2293,1
-104,-4172,18316,-1603,1789,-4464,1
156,-4256,18572,-1852,1807,-4715,1
-216,-4452,18416,-1934,1610,-4947,1
-592,-4528,18640,-1887,1500,-5218,1
-1188,-4244,18616,-2050,1287,-5214,1
-1720,-4248,18764,-2246,834,-5444,1
-2192,-4144,19008,-2411,-109,-5511,1
-2380,-4252,19132,-2501,-1110,-5642,1
-2204,-4328,19180,-2575,-1943,-5630,1
-2208,-4696,19072,-2673,-2712,-5677,1
-2524,-4760,19804,-1570,1824,-1765,1
-2552,-4832,19832,-1455,1667,-1581,1
-2676,-5104,19740,-1313,1420,-1246,1
-2640,-4984,19596,-1240,1367,-1016,1
-2764,-4920,19680,-1096,1059,-911,1
-2728,-4984,19528,-1000,817,-713,1
-2484,-4752,19520,-1006,565,-559,1
-2504,-4916,19168,-1000,234,-417,1
-2288,-4888,19248,-1123,48,-390,1
-1996,-4884,19372,-1175,-99,-406,1
1368,-5880,19124,-467,-444,-2222,1
1236,-5776,19392,-390,-614,-2489,1
1460,-5640,18928,-539,-687,-2485,1
1592,-5772,19000,-524,-771,-2536,1
1708,-5892,18936,-499,-879,-2583,1
1972,-5784,18796,-513,-880,-2749,1
2032,-5832,18692,-484,-889,-2963,1
2076,-6032,18940,-420,-913,-3161,1
2044,-5872,18756,-317,-916,-3385,1
2112,-5860,18956,-281,-991,-3621,1
3548,-5876,18252,-928,-412,-6508,1
3676,-5664,18248,-984,-162,-6709,1
3556,-5524,18124,-1032,224,-6742,1
3512,-5588,18152,-1137,583,-6889,1
3552,-5432,18300,-1273,974,-6904,1
3524,-5912,18524,-1160,1025,-7190,1
3572,-5736,18392,-1206,1517,-7316,1
3440,-5780,18392,-1219,1561,-7566,1
3488,-5740,18420,-1518,1202,-8890,1
3716,-5456,18188,-1863,1541,-9664,1
2080,-5320,18428,-908,1379,-7571,1
2264,-5208,18560,-945,1692,-7274,1
1932,-5392,18692,-836,1951,-6825,1
1880,-5372,18788,-709,2106,-6622,1
1636,-5328,18952,-590,1846,-6542,1
1504,-5172,19052,-686,1475,-6434,1
1496,-5296,19024,-603,1214,-6346,1
1476,-5284,18764,-578,973,-6093,1
1844,-5376,18480,-611,921,-5948,1
1952,-5148,18592,-637,819,-5961,1
2096,-5048,19264,-287,2128,-4807,1
1932,-4908,19164,-179,2254,-4574,1
1812,-4812,18836,-83,2216,-4245,1
1928,-4796,18808,-4,2195,-3972,1
2532,-4656,18516,-43,2154,-3954,1
2424,-4520,18216,-255,2148,-4137,1
2356,-4296,17868,-445,1966,-4228,1
2648,-4312,17676,-564,1982,-4358,1
3084,-4540,17876,-606,2387,-4441,1
3056,-4320,17772,-742,2782,-4531,1
1488,-4336,18988,-527,1570,-4526,1
1176,-3940,19060,-600,1419,-4453,1
792,-4136,19152,-653,866,-4399,1
980,-4296,19044,-684,445,-4306,1
1340,-4308,18828,-772,-1,-4310,1
1752,-4516,18576,-773,-224,-4490,1
2344,-4364,18516,-766,-78,-4633,1
2628,-4188,18308,-708,431,-4590,1
2688,-3944,18324,-757,1034,-4398,1
2376,-3860,18456,-848,1455,-4425,1
2116,-4304,18712,-1126,1126,-4489,1
2500,-4228,18660,-1169,1265,-4303,1
2820,-4580,18576,-1110,1531,-4414,1
2804,-4532,18528,-1028,1710,-4683,1
2516,-4364,18440,-1008,1918,-4597,1
1820,-4164,18372,-1096,1970,-4633,1
1548,-4136,18488,-1260,1733,-4522,1
1720,-4420,18416,-1330,1518,-4655,1
1684,-4480,18504,-1368,1470,-4793,1
1688,-4496,18704,-1366,1537,-4716,1
1072,-4168,19104,-1182,1742,-3757,1
968,-4288,18920,-1112,1742,-3699,1
680,-4044,18900,-1150,1547,-3797,1
508,-3692,19004,-1331,1081,-3880,1
500,-3868,18916,-1575,422,-4309,1
444,-4024,19124,-1777,-117,-4568,1
548,-4200,19332,-1743,-346,-4542,1
212,-4180,19140,-1720,-509,-4319,1
-8,-4032,19016,-1637,-832,-4211,1
-64,-3812,18712,-1715,-1270,-4013,1
2632,-4312,18316,-2124,850,-4093,1
2272,-4440,18668,-2067,1504,-4190,1
1480,-4492,19136,-1879,2007,-3998,1
852,-4716,19100,-1584,2113,-3797,1
484,-4708,19228,-1377,2016,-3754,1
-104,-4448,19312,-1301,1496,-3845,1
-232,-4204,19044,-1317,998,-3638,1
-140,-4232,19092,-1373,560,-3474,1
248,-4268,18772,-1420,362,-3155,1
376,-4212,18500,-1446,219,-2977,1
908,-4532,19444,-1916,84,-954,1
840,-4612,19700,-1796,317,-1038,1
324,-4620,19860,-1681,230,-943,1
-68,-4604,19924,-1499,58,-729,1
-320,-4620,19856,-1552,-191,-577,1
-288,-4508,20004,-1439,-383,-388,1
60,-4432,20120,-1388,-431,-74,1
356,-4748,20160,-1289,-458,187,1
592,-4684,19960,-1196,-776,302,1
1056,-4884,20040,-1119,-860,47,1
-1036,-5532,18548,-659,-280,-1761,1
-1120,-5248,18680,-665,-265,-1695,1
-960,-5300,18716,-634,-263,-1738,1
-1116,-5476,18784,-527,-253,-1869,1
-1116,-5260,18592,-508,-231,-1828,1
-956,-5168,18484,-566,-14,-1685,1
-1196,-4796,18476,-754,141,-1396,1
-1328,-4916,18396,-882,104,-1192,1
-1424,-5048,18500,-1001,35,-1186,1
-1220,-5108,18656,-1150,-136,-1282,1
-1076,-5564,19020,-1270,-661,-1704,1
-968,-5708,18972,-1147,-644,-1628,1
-788,-5676,18860,-952,-563,-1592,1
-848,-5884,18924,-735,-406,-1530,1
-868,-5320,19116,-660,-311,-1643,1
-932,-5572,18860,-657,-312,-1706,1
-676,-5540,18808,-681,-339,-1686,1
-676,-5380,18936,-711,-488,-1841,1
-568,-5400,18920,-793,-616,-2093,1
-732,-5724,18936,-872,-864,-2291,1
464,-5936,18860,-428,-768,-3245,1
400,-5736,18824,-343,-465,-3271,1
556,-5652,18668,-251,-98,-3222,1
452,-5604,18368,-240,112,-3306,1
488,-5384,18356,-274,409,-3485,1
356,-5368,18200,-365,644,-3680,1
504,-5300,18016,-314,1186,-3694,1
204,-5168,18052,-186,2007,-3303,1
24,-5020,18104,65,2746,-2994,1
-356,-4904,18244,169,2978,-2828,1
-868,-4832,18820,-155,1510,-3540,1
-944,-4756,18732,-245,1492,-3421,1
-952,-4744,18908,-300,1206,-3497,1
-1212,-4776,19004,-380,1025,-3469,1
-956,-4772,18976,-517,699,-3297,1
-880,-4872,19136,-572,427,-3167,1
-760,-5000,19232,-638,282,-3114,1
-524,-5144,19104,-641,130,-3315,1
-532,-5364,19152,-601,32,-3726,1
-588,-5444,19200,-581,-48,-3861,1
360,-5404,18980,-265,-411,-3816,1
560,-5424,19024,-216,-277,-3825,1
528,-5228,18984,-254,-118,-3901,1
432,-5264,19068,-277,108,-3826,1
404,-5188,18860,-242,236,-3603,1
376,-5132,18660,-252,243,-3609,1
352,-5088,18676,-357,15,-3867,1
216,-5040,18680,-624,-319,-4259,1
368,-5056,18988,-864,-544,-4521,1
340,-5024,18956,-997,-775,-4680,1
124,-4572,18764,-556,392,-4349,1
20,-4908,18908,-488,326,-4224,1
152,-5248,18856,-347,433,-4111,1
164,-4956,18888,-257,555,-3982,1
96,-4620,18668,-350,557,-3956,1
-232,-4644,18568,-486,302,-3937,1
-88,-4456,18500,-607,91,-4048,1
-352,-4480,18744,-745,-235,-4120,1
-264,-4480,18540,-841,-469,-4161,1
-364,-4488,18756,-812,-657,-4139,1
624,-4664,19080,-510,726,-3241,1
600,-4696,19052,-520,672,-3313,1
748,-4680,19184,-466,680,-3234,1
668,-4780,19124,-364,794,-3197,1
856,-4768,18816,-240,884,-3080,1
1024,-4572,18624,-283,1013,-3162,1
876,-4632,18332,-395,1084,-3330,1
692,-4572,18504,-538,1210,-3555,1
604,-4612,18696,-636,1172,-3675,1
576,-4552,18916,-634,1305,-3701,1
476,-4608,19172,-558,705,-3644,1
644,-4444,18796,-632,541,-3782,1
776,-4580,18752,-710,572,-4061,1
948,-4684,18896,-778,710,-4124,1
792,-4396,19108,-777,1078,-4003,1
596,-4408,19228,-680,1276,-3738,1
304,-4392,19128,-645,1229,-3585,1
308,-4416,19032,-700,1027,-3580,1
340,-4056,18772,-861,719,-3919,1
0,-4344,19116,-1059,148,-4130,1
1396,-4652,19040,-919,199,-3311,1
1336,-4752,18936,-803,429,-3169,1
1268,-4532,19120,-720,465,-3176,1
1428,-4636,19100,-777,437,-3196,1
1320,-4812,19016,-712,247,-3316,1
1240,-4644,19024,-697,66,-3349,1
1508,-4632,18752,-713,-68,-3465,1
1944,-4764,18572,-725,233,-3555,1
2056,-4400,18372,-763,638,-3535,1
1908,-4544,18372,-704,1001,-3514,1
1332,-4644,18848,-1069,1270,-3749,1
1460,-4704,18588,-1035,1309,-3595,1
1452,-4652,18332,-1043,1368,-3698,1
1552,-4704,18372,-1166,1492,-3791,1
1548,-4656,18380,-1166,1656,-3804,1
1400,-4380,18776,-1210,1878,-3778,1
1448,-4472,18892,-1252,1897,-3723,1
1300,-4768,18888,-1242,1918,-3891,1
1392,-4936,18840,-1211,1975,-4134,1
1288,-4924,18764,-1099,2218,-4211,1
464,-4780,19212,-1249,1972,-4227,1
216,-4756,19316,-1269,1604,-4438,1
304,-4700,19380,-1310,1127,-4550,1
664,-4488,19428,-1284,1008,-4608,1
788,-4536,19128,-1262,1221,-4404,1
756,-4452,19140,-1229,1410,-4172,1
640,-4744,18944,-1142,1516,-3921,1
768,-4632,19168,-1108,1513,-3834,1
700,-4696,19060,-1058,1408,-4080,1
544,-4560,18860,-995,1195,-4191,1
888,-4488,18476,-1022,1935,-3718,1
796,-4408,18352,-1170,1800,-3926,1
696,-4372,18620,-1255,1474,-3981,1
1080,-4344,18520,-1341,1283,-4175,1
1072,-4600,18208,-1418,1237,-4256,1
1320,-4672,18188,-1521,1404,-4233,1
1600,-4804,18072,-1434,2058,-4145,1
1572,-4568,18152,-1300,2819,-3980,1
1172,-4288,18064,-1279,3415,-3732,1
772,-4300,18368,-1323,3565,-3716,1
852,-4532,18508,-1406,2483,-3977,1
696,-4516,18300,-1410,2530,-3849,1
468,-4480,18152,-1700,2541,-3765,1
532,-4752,18288,-1794,2535,-3658,1
724,-5068,18492,-1769,2706,-3527,1
744,-5260,18576,-1566,3217,-3485,1
680,-4884,18556,-1464,3520,-3491,1
-8,-4740,18612,-1441,3421,-3469,1
-364,-4596,18576,-1552,2952,-3640,1
-668,-4680,18536,-1669,2163,-4021,1
-20,-4748,17944,-3159,334,-3603,1
288,-5056,18304,-3370,423,-3758,1
564,-5412,18596,-3387,634,-3968,1
752,-5424,18680,-3281,902,-4195,1
836,-5480,18728,-3143,1487,-4205,1
692,-5512,18684,-3024,2147,-4022,1
404,-5460,18748,-2867,2837,-3757,1
64,-5200,19108,-2820,3324,-3438,1
-520,-5364,19192,-2839,3504,-3085,1
-796,-5348,19240,-2958,3383,-2859,1
1120,-3676,18924,-487,1763,-4093,1
1032,-3712,18936,-389,1818,-4073,1
920,-3592,19340,-399,1725,-4003,1
1004,-3720,19208,-432,1839,-3784,1
1200,-3972,19012,-386,2016,-3608,1
1208,-3848,18740,-330,2269,-3681,1
860,-3448,18656,-292,2281,-3948,1
308,-3216,18648,-372,2019,-4155,1
20,-3012,18728,-635,1637,-4251,1
236,-3236,18808,-768,1388,-4035,1
188,-3304,18540,-863,1320,-4378,1
-140,-3004,18552,-1008,1059,-4376,1
-192,-2868,18544,-1235,773,-4231,1
-84,-2964,18292,-1447,580,-4201,1
28,-3248,18656,-1587,525,-4065,1
404,-3424,18540,-1571,726,-4014,1
428,-3476,18732,-1436,1239,-4014,1
212,-3536,18616,-1288,1641,-3992,1
-104,-3272,18520,-1193,1898,-3898,1
-624,-3000,18412,-1300,1868,-3930,1
-392,-3260,18548,-1373,2059,-3259,1
-732,-2980,18332,-1437,1927,-3280,1
-756,-2948,18048,-1638,1765,-3279,1
-604,-3072,18328,-1810,1977,-3234,1
-448,-3316,18284,-1800,2231,-3090,1
-528,-2932,18492,-1855,2431,-3088,1
-768,-2940,18348,-1923,2401,-3142,1
-748,-3020,18392,-2146,2310,-3133,1
-728,-3000,18484,-2287,2214,-3136,1
-712,-3176,18256,-2401,2187,-3159,1
-1536,-4232,19540,-2579,2795,-2416,1
-1500,-4252,19280,-2489,2807,-2464,1
-908,-5068,18596,-646,93,-504,1
-952,-5044,18412,-606,42,-570,1
-916,-4852,18532,-615,64,-527,1
-880,-4780,18696,-679,-31,-741,1
-624,-4936,18592,-770,-44,-848,1
-348,-5248,18868,-633,48,-945,1
-324,-5276,19012,-502,309,-998,1
-172,-5128,18984,-186,401,-919,1
-208,-5044,18896,19,650,-1142,1
-380,-4972,18992,114,657,-1362,1
104,-5108,18928,-1245,-304,-3959,1
320,-5176,18900,-1287,114,-3932,1
432,-5416,18784,-1074,681,-3882,1
248,-5252,18628,-1052,1256,-3799,1
88,-5012,18568,-1513,1786,-4012,1
-196,-4996,18840,-1915,1932,-4470,1
-772,-5284,18972,-2208,1675,-4955,1
-1064,-5424,18972,-2318,1273,-5440,1
-1104,-5472,19052,-2178,566,-5620,1
-760,-5516,18900,-1970,319,-5595,1
256,-5352,18756,-512,200,-4535,1
76,-5220,18980,-372,450,-4240,1
100,-5260,19012,-339,746,-3995,1
196,-5332,18740,-205,840,-4040,1
148,-5252,18900,-254,844,-4262,1
-60,-5308,18916,-343,551,-4469,1
8,-5404,18884,-420,336,-4622,1
-52,-5380,18944,-329,324,-4810,1
-148,-5312,19016,-286,239,-4769,1
40,-5176,18972,-281,325,-4821,1
-256,-4868,19032,-322,843,-4132,1
-148,-4960,19256,-395,671,-4110,1
-196,-5108,19204,-320,622,-4006,1
-52,-5160,19156,-255,636,-3953,1
72,-5140,19140,-202,818,-3911,1
-168,-4980,19244,-128,867,-3904,1
-316,-4892,19156,-122,753,-3985,1
-488,-4700,19132,-264,521,-3949,1
-296,-5004,19216,-201,298,-4020,1
-52,-5012,19148,-73,332,-4149,1
-116,-4732,18896,-94,-86,-4285,1
16,-4672,19044,32,234,-4169,1
-216,-4340,19052,83,567,-3946,1
-448,-4492,18816,43,542,-3650,1
-604,-4300,18668,-42,428,-3527,1
-656,-4032,18648,-224,98,-3544,1
-664,-4116,18804,-416,-178,-3444,1
-360,-4312,19124,-443,-364,-3400,1
24,-4336,19072,-353,-399,-3437,1
260,-4528,19192,-143,-265,-3526,1
136,-4128,18924,-546,481,-3258,1
148,-4212,18948,-437,266,-3228,1
548,-4376,18880,-467,194,-3341,1
448,-4152,18820,-568,194,-3289,1
396,-4176,18564,-621,290,-3321,1
480,-4344,18808,-494,367,-3411,1
508,-4372,19008,-336,516,-3372,1
548,-4172,18980,-276,532,-3440,1
328,-4152,18784,-279,441,-3436,1
248,-4132,18564,-417,430,-3496,1
520,-4232,19116,-1062,109,-3478,1
608,-4136,18916,-991,255,-3396,1
832,-4548,18860,-879,563,-3296,1
776,-4356,18780,-855,878,-3372,1
644,-4268,18764,-895,915,-3418,1
660,-3968,18736,-969,982,-3368,1
628,-4216,18848,-1049,1069,-3323,1
648,-4164,19052,-1079,1132,-3140,1
776,-4312,19020,-992,1279,-3108,1
564,-4376,19100,-922,1395,-3097,1
916,-4236,18784,-749,363,-3334,1
984,-4224,18680,-712,703,-3278,1
980,-3884,18592,-776,1219,-3292,1
776,-4020,18792,-831,1561,-3345,1
544,-4120,18896,-947,1826,-3356,1
420,-4200,19192,-929,1960,-3282,1
400,-4456,19348,-810,2116,-3310,1
212,-4160,19336,-808,2218,-3355,1
56,-4184,19352,-829,2241,-3415,1
-112,-4324,19156,-911,2049,-3454,1
-668,-3964,18568,-1105,450,-4405,1
-548,-3760,18804,-1201,294,-4296,1
-384,-4048,18592,-1209,388,-4053,1
-292,-4140,18596,-1180,501,-4132,1
-376,-4016,18440,-1129,597,-3894,1
-192,-4124,18168,-1123,876,-3941,1
-268,-4124,18216,-1058,1057,-4009,1
-528,-3860,18288,-1061,1133,-4018,1
-516,-3576,18212,-1210,1161,-3885,1
-560,-3464,18040,-1366,1218,-3685,1
84,-4828,18208,-2947,392,-4210,1
144,-4952,18292,-2890,862,-4125,1
20,-4796,18380,-2843,1324,-3828,1
-252,-4844,18384,-2662,1800,-3545,1
-548,-4684,18408,-2584,2263,-3343,1
-836,-4484,18460,-2611,2494,-3168,1
-1108,-4584,18644,-2582,2446,-3030,1
-1328,-4804,18852,-2511,2367,-2964,1
-1172,-4692,18896,-2407,2292,-3075,1
-1368,-4968,19128,-2380,2107,-3310,1
-2380,-5368,19280,-1153,1583,-1029,1
-2424,-5372,19524,-1080,1390,-999,1
-2444,-5268,19604,-1016,1065,-867,1
-2516,-5100,19380,-1033,787,-851,1
-2328,-5196,19336,-1094,540,-625,1
-2280,-5256,19252,-1086,439,-443,1
948,-5012,19060,-382,730,-5853,1
644,-4940,18900,-360,828,-5842,1
604,-4900,19080,-311,903,-5665,1
540,-4984,18884,-118,1071,-5311,1
540,-4816,18804,58,1277,-4732,1
620,-4616,19004,152,1555,-4172,1
424,-4588,19016,166,1479,-3964,1
376,-4428,18924,29,1197,-4019,1
484,-4664,18904,-123,830,-4240,1
840,-4968,18632,-172,762,-4274,1
620,-4548,18672,34,990,-3910,1
424,-4552,18788,-15,838,-4023,1
456,-4528,18864,17,859,-4198,1
392,-4384,18892,32,756,-4119,1
452,-4388,18836,-27,653,-4105,1
712,-4512,18632,-118,653,-4101,1
824,-4348,18672,-169,802,-4246,1
904,-4444,18824,-184,1058,-4217,1
912,-4364,18800,-52,1572,-4307,1
500,-4252,18892,91,1789,-4419,1
1132,-3720,19152,-604,-347,-4095,1
1144,-3972,19104,-543,-48,-3948,1
1232,-4060,18796,-569,260,-3917,1
1280,-3964,18724,-693,586,-4111,1
1108,-4228,18844,-712,727,-4190,1
928,-4200,19140,-619,862,-4343,1
976,-4264,19224,-458,1113,-4336,1
864,-4124,19268,-308,1227,-4192,1
688,-4192,19268,-188,1153,-4087,1
780,-4172,18772,-264,1182,-4160,1
428,-3508,18808,-515,2091,-4673,1
292,-3596,18896,-442,2134,-4586,1
268,-3660,18940,-434,2403,-4406,1
84,-3732,18840,-286,2713,-4168,1
-196,-3560,18804,-222,2803,-3965,1
-544,-3464,19032,-208,2558,-3932,1
-824,-3528,19280,-217,1813,-4049,1
-1016,-3144,19272,-249,877,-4226,1
-1164,-2776,19048,-585,-305,-4561,1
-708,-2764,18984,-1158,-1470,-4849,1
100,-3656,19136,-1193,312,-4657,1
440,-3776,19112,-1272,76,-4638,1
632,-3976,19312,-1144,265,-4706,1
724,-4064,19376,-904,631,-4501,1
936,-3944,19228,-667,1256,-4384,1
1128,-3816,18800,-493,2105,-4085,1
548,-3512,18692,-443,2635,-4022,1
-84,-3168,18812,-587,2799,-3873,1
-592,-3240,19004,-708,2631,-3719,1
-908,-3296,19000,-769,2223,-3461,1
-628,-3012,19204,-868,1792,-2823,1
-336,-3268,19208,-802,1691,-2811,1
-72,-3316,19180,-784,1822,-2791,1
-100,-3420,19364,-665,2090,-2672,1
-312,-3356,19216,-535,2146,-2504,1
-324,-3416,19308,-532,2125,-2577,1
-728,-3280,19264,-605,1905,-2621,1
-908,-3064,19108,-702,1530,-2858,1
-648,-2980,19060,-826,1355,-2896,1
-888,-3160,18952,-945,1118,-2895,1
760,-3536,18824,-2702,-110,-3620,1
644,-3772,19156,-2634,125,-3646,1
504,-3940,19280,-2453,614,-3642,1
144,-3968,19664,-2190,929,-3410,1
-8,-4040,19624,-1993,1112,-3199,1
-80,-3940,19316,-1921,1249,-3060,1
-376,-4008,19356,-1841,1209,-3102,1
-596,-3860,19112,-1852,940,-3279,1
-772,-3872,19228,-1918,483,-3389,1
-876,-3780,19320,-1988,-86,-3477,1
332,-4296,18812,-2352,-504,-2853,1
460,-4240,19020,-2194,-100,-2716,1
548,-4276,19004,-2105,276,-2565,1
408,-4396,18968,-2005,618,-2462,1
20,-4328,19236,-1944,574,-2301,1
-12,-4228,19196,-1982,553,-2165,1
108,-4116,19112,-2026,491,-2297,1
-56,-4256,19024,-1914,293,-2309,1
284,-4404,18824,-2009,184,-2382,1
448,-4572,18860,-2025,28,-2370,1
-552,-4644,18440,-1398,2057,-2091,1
-492,-4744,18540,-1705,2038,-2035,1
-756,-4764,18924,-1830,1714,-2051,1
-784,-5024,18960,-1816,1400,-2095,1
-660,-5356,18948,-1860,1187,-2226,1
-496,-5336,18904,-1852,1036,-2360,1
-464,-5304,18860,-1818,1093,-2330,1
-312,-5112,18940,-1768,1332,-2183,1
16,-4920,19044,-1712,1730,-2201,1
-240,-4800,18980,-1727,1880,-2346,1
-1500,-5020,19148,-1049,498,-810,1
-1636,-4824,19084,-1042,298,-983,1
-1452,-4852,18996,-1078,58,-1038,1
-1420,-4856,18768,-1070,-52,-1099,1
-1280,-4852,18712,-1044,48,-956,1
-1108,-4856,18824,-1060,371,-598,1
-1168,-4932,18860,-1005,712,-360,1
-1464,-5260,19008,-982,796,-140,1
-1524,-5192,18900,-966,572,-303,1
-1716,-5116,18744,-990,188,-455,1
-528,-5052,18424,-1025,-206,-3982,1
-568,-4692,18336,-1190,62,-4016,1
-664,-4936,18492,-1252,332,-4079,1
-1064,-4868,18696,-1131,286,-4144,1
-1072,-5040,18988,-1176,126,-4143,1
-1024,-5184,18896,-1030,-14,-3958,1
-928,-4960,18988,-1071,-142,-3734,1
-788,-5064,18716,-1101,-50,-3643,1
-620,-5104,18620,-1177,28,-3522,1
-516,-5228,18696,-1145,267,-3491,1
116,-5172,18820,-867,-174,-4523,1
-16,-5244,18668,-838,31,-4533,1
48,-5256,18368,-871,402,-4369,1
44,-5104,18632,-876,872,-4250,1
-280,-4888,18652,-999,964,-4118,1
-384,-4856,18816,-1229,855,-4148,1
-312,-5176,18780,-1260,480,-4307,1
-180,-5496,18956,-1271,308,-4673,1
108,-5580,18836,-1197,229,-4940,1
104,-5680,18884,-1059,355,-5198,1
-452,-5232,18964,-329,880,-4466,1
-236,-5284,18876,-163,1060,-4447,1
112,-5588,18520,34,1261,-4440,1
188,-5372,18412,92,1771,-4506,1
-140,-5036,18548,89,1952,-4710,1
-408,-4952,18568,5,1947,-4663,1
-780,-5104,18792,-125,1733,-4634,1
-756,-5084,19044,-97,1507,-4490,1
-884,-5060,19188,-65,1346,-4352,1
-736,-5168,19288,-75,1196,-4251,1
-164,-5380,18784,41,778,-4767,1
-284,-5204,18836,74,795,-4768,1
-192,-5196,18944,164,902,-4646,1
-168,-5144,18804,207,1124,-4468,1
-224,-5132,18644,141,1046,-4521,1
-176,-5172,18752,18,901,-4609,1
-40,-5116,18448,-360,797,-4754,1
-4,-5368,18488,-291,896,-4899,1
-248,-5228,18724,-23,1059,-4996,1
-244,-4964,18612,19,1288,-5113,1
32,-4604,18492,-443,-639,-5454,1
272,-4552,18448,-475,-766,-5463,1
520,-4708,18796,-485,-693,-5236,1
672,-5096,18448,-343,-532,-5093,1
1124,-5196,18224,-389,-79,-5061,1
1184,-4948,18032,-343,463,-5145,1
1032,-4752,18024,-443,841,-5326,1
456,-4444,18172,-532,987,-5433,1
244,-4336,18388,-552,922,-5563,1
-168,-4196,18888,-602,711,-5682,1
-408,-4180,18692,-459,2354,-3819,1
-348,-4452,18784,-422,2329,-3698,1
-428,-4432,18640,-344,2195,-3741,1
-252,-4376,18508,-572,2116,-3726,1
-468,-4564,18608,-734,1884,-3695,1
-352,-4692,18620,-746,1966,-3671,1
-196,-4588,18572,-658,2260,-3695,1
-316,-4404,18584,-576,2452,-3634,1
-652,-4116,18572,-655,2592,-3704,1
-820,-4092,18596,-665,2686,-3566,1
-828,-4260,18984,-556,2272,-2368,1
-940,-4120,18884,-563,2243,-2515,1
-1140,-3904,18804,-567,2003,-2512,1
-1232,-3692,18540,-868,1728,-2342,1
-1192,-3756,18608,-1092,1482,-2340,1
-1236,-3816,18740,-1212,1213,-2222,1
-1020,-4120,18932,-1332,1055,-2284,1
-580,-4364,18860,-1236,1279,-2223,1
-420,-4428,19024,-919,1650,-2180,1
-688,-4376,18864,-703,1861,-2241,1
-1340,-4424,18356,-1927,587,-2188,1
-1248,-4692,18368,-1974,402,-2100,1
-1156,-4664,18260,-1984,454,-2047,1
-972,-4656,18100,-2068,632,-2011,1
-892,-4660,18576,-2089,801,-1910,1
-856,-4792,18724,-2088,923,-1800,1
-952,-4716,18792,-2163,927,-1773,1
-1108,-4740,18872,-2305,739,-1892,1
-1268,-4768,18840,-2348,372,-2154,1
-1132,-4856,18984,-2388,179,-2322,1
-1560,-5732,19112,-1702,243,-263,1
-1552,-5600,19212,-1597,165,-81,1
-1616,-5556,19048,-1651,50,-69,1
-1324,-5696,19020,-1579,13,-101,1
-1004,-5776,19112,-1541,35,-109,1
-956,-5984,18988,-1454,91,-129,1
-916,-6076,19080,-1364,102,-79,1
-780,-6072,19268,-1261,135,-89,1
-884,-6152,18848,-1210,161,-32,1
-868,-6228,19108,-1164,261,5,1
-952,-6324,18768,-749,607,-113,1
-1156,-6296,18780,-740,585,-39,1
-1300,-6304,19100,-685,507,37,1
-1188,-6228,19136,-646,418,118,1
-1220,-6136,19096,-661,390,164,1
-1224,-6384,19180,-593,416,272,1
-1136,-6332,19320,-493,593,355,1
-1360,-6324,19272,-288,535,587,1
-1520,-6328,19296,-162,621,655,1
-1740,-6308,19332,22,499,730,1
-1640,-4756,18916,1015,890,3018,1
-1760,-4844,18800,911,1240,3265,1
-2108,-5276,18968,937,1466,3554,1
-2444,-5204,19260,993,1808,4010,1
-2688,-5220,19268,1100,2070,4375,1
-3216,-5152,19404,1169,2184,4769,1
-3596,-5188,19576,1093,2082,5244,1
-3896,-5236,19956,883,1847,5828,1
-4076,-5536,20096,772,1775,6684,1
-4480,-6208,20428,952,2005,7925,1
-7728,-7720,19912,7380,8495,20265,1
-7880,-7856,19460,8168,9016,21300,1
-8020,-7928,18856,9119,9517,22846,1
-8052,-7884,18640,9751,10280,24642,1
-8232,-7308,18612,10370,10761,25719,1
-8464,-7240,18308,11350,10927,25479,1
-8340,-7336,18412,12908,10164,24645,1
-8124,-6832,17432,14068,9415,23253,1
-7456,-4784,16500,14280,8856,22178,1
-7084,-1936,15592,13156,8413,21745,1
-4864,3364,15016,2912,-1680,13957,1
-4964,3832,14232,3066,-938,14020,1
-5668,4536,13808,2907,383,15464,1
-6228,5660,14016,2058,1476,17624,1
-7116,5856,14696,1284,2062,19785,1
-7576,5900,15828,823,1588,21258,1
-7372,5640,16432,639,1158,21846,1
-7216,5168,16512,816,612,22019,1
-6872,5268,16624,665,-703,21418,1
-6588,4972,16552,530,-2344,20378,1
6316,5400,16216,139,-6248,4563,1
6356,5236,16852,1017,-3886,3674,1
5876,5712,17564,1910,-2020,2948,1
5336,6136,17880,2648,-213,2110,1
4772,6396,18088,2888,1271,946,1
3808,6444,18940,2923,2010,274,1
2868,6364,20088,2688,2205,-435,1
2088,5736,21536,2396,1215,-940,1
2032,4788,22648,2407,64,-1702,1
2128,4496,23156,3064,-1111,-3287,1
-1796,-4824,18956,-1360,-560,-104,1
-1652,-4888,18920,-1208,-520,-30,1
-1420,-4840,18776,-1176,-198,-43,1
-1516,-4772,18916,-1119,66,-39,1
-1736,-4928,19124,-1069,194,-107,1
-1692,-4920,19076,-1099,226,-243,1
-1600,-4944,18912,-1056,110,-301,1
-1752,-5176,18932,-1008,65,-338,1
-1592,-5156,19080,-849,148,-378,1
-1572,-5156,19024,-585,173,-407,1
-996,-4440,18976,-372,298,-3676,1
-1400,-4564,18964,-438,237,-3674,1
-1440,-4464,18952,-591,136,-3547,1
-1472,-4336,19000,-882,0,-3590,1
-1656,-4268,18952,-1234,-176,-3627,1
-1540,-4464,19228,-1422,-589,-3819,1
-1672,-4888,19124,-1491,-1014,-3855,1
-1420,-5220,19308,-1446,-1479,-4222,1
-1188,-5456,19328,-1395,-1677,-4776,1
-824,-5244,19212,-1531,-1661,-5261,1
-664,-5132,18836,-1585,-951,-6380,1
-436,-5204,19152,-1624,-979,-6631,1
-420,-5152,18900,-1489,-1031,-6366,1
-280,-5140,18848,-1347,-661,-6043,1
-268,-5236,18820,-1000,-450,-5791,1
152,-5324,18840,-642,234,-5655,1
68,-5536,18844,-173,512,-5557,1
-304,-5160,18840,-67,787,-5444,1
-432,-5208,18800,-228,738,-5162,1
-536,-5012,19048,-429,504,-4932,1
64,-5344,19144,-81,1245,-4134,1
8,-5376,18864,-302,977,-4241,1
108,-5472,18688,-461,746,-4439,1
352,-5496,18776,-487,733,-4746,1
296,-5416,18856,-365,920,-4932,1
288,-5208,18836,-351,1321,-4986,1
-32,-5288,19056,-299,1407,-4781,1
-20,-5316,18852,-220,1443,-4637,1
-28,-5392,18944,-146,1363,-4579,1
32,-5360,18828,-182,1515,-4628,1
-452,-4908,19204,-163,797,-4292,1
-740,-4700,19040,-67,949,-4262,1
-1012,-4400,19012,-156,894,-4121,1
-1152,-4196,19116,-275,639,-3913,1
-1076,-4412,19036,-377,443,-3694,1
-988,-4676,18864,-361,412,-3361,1
-816,-4428,18628,-203,420,-3223,1
-996,-4516,18644,-244,293,-3360,1
-1028,-4308,18572,-496,203,-3473,1
-880,-4104,18632,-668,78,-3596,1
-588,-4120,19048,284,1713,-2491,1
-728,-4104,19032,225,1562,-2408,1
-900,-4156,18908,46,1129,-2491,1
-860,-4260,18840,-215,592,-2651,1
-588,-4256,18828,-326,416,-2709,1
-240,-4516,18916,-219,573,-2699,1
-20,-4428,19076,62,1009,-2714,1
-44,-4288,19156,287,1313,-2679,1
-388,-4124,19024,283,1361,-2603,1
-624,-3944,19032,182,957,-2610,1
-184,-4152,19024,-249,901,-2744,1
-188,-4224,18792,-293,816,-2716,1
-320,-4436,18856,-275,802,-2659,1
-332,-4524,18760,-201,645,-2672,1
-288,-4300,18704,-298,448,-2830,1
-132,-4092,18700,-385,206,-3072,1
-92,-4032,18660,-537,79,-3276,1
-96,-4132,18724,-680,-38,-3344,1
56,-3976,18668,-902,-113,-3532,1
248,-4188,18404,-1046,-190,-3615,1
-196,-4476,18980,-408,1638,-3258,1
-216,-4112,19116,-222,2102,-3068,1
-232,-4188,19244,-58,2548,-2902,1
-352,-3976,19392,150,2745,-2883,1
-404,-4016,19588,312,2884,-2959,1
-692,-4104,19608,404,2651,-3008,1
-716,-4000,19492,342,2401,-3246,1
-952,-3964,19520,249,1998,-3515,1
-940,-3872,19492,164,1481,-3704,1
-752,-3764,19540,41,1087,-3803,1
260,-4032,18652,-93,1216,-3661,1
280,-3856,18664,-135,1510,-3617,1
104,-4080,18888,-49,1879,-3497,1
204,-4312,18988,124,2310,-3515,1
-56,-4124,19092,278,2638,-3511,1
-436,-3920,18892,248,2745,-3615,1
-776,-3660,18996,136,2716,-3672,1
-1044,-3912,18652,-48,2519,-3854,1
-1144,-3828,18864,-104,2265,-4008,1
-1064,-3708,19008,-22,2240,-4078,1
-676,-3580,19140,-298,-696,-3555,1
-836,-3328,19096,-439,-736,-3703,1
-980,-3368,19160,-601,-975,-3579,1
-780,-3488,19128,-713,-970,-3440,1
-568,-3584,19244,-712,-878,-3377,1
-436,-3896,19212,-432,-580,-3227,1
-68,-3900,19284,-159,-105,-3086,1
-192,-3716,19016,-18,79,-2942,1
-208,-3576,18696,-15,200,-2978,1
-316,-3332,18672,-232,241,-3111,1
-412,-3504,18964,-506,1416,-3239,1
-492,-3748,18968,-542,1290,-3397,1
-476,-3868,18900,-506,1484,-3375,1
-472,-3664,18980,-351,1705,-3440,1
-448,-3400,19024,-239,1834,-3363,1
-824,-3304,18960,-249,1837,-3319,1
-892,-3408,19064,-312,1638,-3146,1
-1044,-3380,18960,-420,1424,-3070,1
-996,-3464,19212,-466,1327,-2978,1
-784,-3516,19108,-396,1373,-2896,1
-624,-3048,18664,-282,730,-3179,1
-804,-3172,18604,-386,1011,-3233,1
-1028,-3052,18748,-587,1180,-3236,1
-1168,-3016,18856,-564,1242,-3091,1
-1208,-3092,19224,-609,1445,-2982,1
-1260,-3124,19160,-504,1511,-2653,1
-1492,-3360,19088,-481,1580,-2448,1
-1492,-3240,18928,-539,1508,-2591,1
-1532,-3308,18688,-504,1376,-2712,1
-1304,-3196,18732,-488,1445,-2785,1
-1780,-2884,18380,-1102,613,-2351,1
-1952,-2824,18696,-1467,448,-2735,1
-2072,-3208,18760,-1529,112,-2922,1
-1800,-3408,18884,-1516,337,-2962,1
-2008,-3392,18884,-1119,602,-2564,1
-2028,-3052,18428,-658,825,-2160,1
-1600,-2596,18192,-611,1355,-1695,1
-1364,-2660,17904,-788,1813,-1508,1
-1656,-2880,18144,-913,1999,-1510,1
-1860,-3020,18360,-998,2262,-1713,1
-3076,-2796,19132,-1434,1705,-1223,1
-3132,-2612,19460,-1547,1576,-1159,1
-3040,-2620,19352,-1668,1556,-951,1
-2992,-2788,19596,-1675,1519,-848,1
-3100,-3256,19588,-1621,1447,-706,1
-3104,-3252,19656,-1581,1313,-677,1
-3124,-3360,19592,-1523,1147,-622,1
-3212,-3312,19732,-1464,1052,-722,1
-3344,-3448,19716,-1337,929,-615,1
-3268,-3372,19772,-1282,928,-563,1
-2580,-4052,19608,-1070,-232,-213,1
-2576,-3812,19504,-1055,-252,-209,1
-2224,-3800,19332,-1011,-242,-120,1
-2072,-3812,19276,-990,-34,-11,1
-2024,-3924,19480,-957,105,-156,1
-2152,-4064,19452,-879,185,-152,1
-2272,-3960,19528,-779,192,-173,1
-2280,-4100,19508,-736,211,-111,1
-2216,-3916,19312,-729,274,-153,1
-2200,-4032,18852,-768,345,-266,1
-560,-4468,19320,-1205,1636,-2631,1
-576,-4596,19432,-1525,1111,-2938,1
-464,-4960,19344,-1676,565,-3063,1
-16,-5068,19344,-1558,435,-3067,1
4,-5032,19036,-1326,395,-3303,1
84,-4808,19052,-1204,462,-3446,1
-228,-4764,19152,-1124,317,-3432,1
-260,-4704,18912,-1238,225,-3510,1
-428,-4600,18784,-1458,11,-3521,1
-280,-4736,18740,-1535,-270,-3457,1
76,-5064,19084,-1221,-148,-2931,1
332,-5176,19164,-975,301,-3035,1
496,-4964,19032,-559,811,-2865,1
256,-4944,18888,-317,1165,-2750,1
-160,-4572,18852,-440,1213,-2561,1
-148,-4532,18772,-710,1047,-2568,1
-204,-4612,19096,-880,886,-2472,1
-28,-4876,19236,-904,874,-2454,1
292,-4920,19232,-754,955,-2372,1
216,-5196,19196,-570,900,-2456,1
304,-5168,18904,-696,952,-3612,1
368,-5272,18940,-576,965,-3735,1
572,-5232,18896,-597,953,-3895,1
352,-5056,18848,-638,767,-3996,1
292,-5184,18608,-695,641,-4104,1
452,-5004,18572,-669,678,-4247,1
624,-4912,18640,-561,858,-4308,1
576,-5024,18384,-569,1071,-4340,1
412,-5276,18488,-668,1273,-4557,1
292,-5104,18492,-714,1265,-4717,1
-88,-4432,18512,653,3890,-3837,1
-580,-4276,18924,769,4058,-3311,1
-972,-3996,19280,714,3762,-2939,1
-1440,-4132,19340,328,2811,-2986,1
-1440,-4716,19248,-270,1668,-3447,1
-1088,-4808,18972,-677,884,-4340,1
-988,-4600,18992,-891,460,-4871,1
-976,-4496,19016,-1107,331,-5133,1
-1312,-4792,18980,-1235,110,-5271,1
-908,-4716,19056,-1152,120,-5357,1
-1772,-4440,19108,-863,-683,-4565,1
-1432,-4520,19124,-972,-1037,-4909,1
-752,-4428,19108,-802,-766,-4777,1
-320,-4136,19128,-503,84,-4302,1
-300,-4272,19136,27,939,-3675,1
-636,-4628,19332,483,1559,-3239,1
-1244,-4620,19212,594,1744,-3281,1
-1704,-4196,19384,465,1230,-3677,1
-1736,-3816,19256,215,680,-3834,1
-1732,-3648,19340,-9,321,-3773,1
-404,-4520,18476,-593,-233,-3618,1
-624,-4252,18500,-647,-93,-3806,1
-720,-4116,18632,-664,-14,-3701,1
-1000,-3820,18740,-712,-70,-3528,1
